ID, Accel_Timestamp(ms), Accel_X, Accel_Y, Accel_Z, Gyro_Timestamp(ms), Gyro_X, Gyro_Y, Gyro_Z
1, 149318672796123, 0.0, 9.809989, 0.0, 149318668714423, 0.0, 0.0, 0.0
2, 149318682796123, 0.0, 9.809989, 0.0, 149318678714423, 0.0, 0.0, 0.0
3, 149318692796123, 0.0, 9.809989, 0.0, 149318688714423, 0.0, 0.0, 0.0
4, 149318702796123, 0.0, 9.809989, 0.0, 149318698714423, 0.0, 0.0, 0.0
5, 149318712796123, 0.0, 9.809989, 0.0, 149318708714423, 0.0, 0.0, 0.0
6, 149318722796123, 0.0, 9.809989, 0.0, 149318718714423, 0.0, 0.0, 0.0
7, 149318732796123, 0.0, 9.809989, 0.0, 149318728714423, 0.0, 0.0, 0.0
8, 149318742796123, 0.0, 9.809989, 0.0, 149318738714423, 0.0, 0.0, 0.0
9, 149318752796123, 0.0, 9.809989, 0.0, 149318748714423, 0.0, 0.0, 0.0
10, 149318762796123, 0.0, 9.809989, 0.0, 149318758714423, 0.0, 0.0, 0.0
11, 149318772796123, 0.0, 9.809989, 0.0, 149318768714423, 0.0, 0.0, 0.0
12, 149318782796123, 0.0, 9.809989, 0.0, 149318778714423, 0.0, 0.0, 0.0
13, 149318792796123, 0.0, 9.809989, 0.0, 149318788714423, 0.0, 0.0, 0.0
14, 149318802796123, 0.0, 9.809989, 0.0, 149318798714423, 0.0, 0.0, 0.0
15, 149318812796123, 0.0, 9.809989, 0.0, 149318808714423, 0.0, 0.0, 0.0
16, 149318822796123, 0.0, 9.809989, 0.0, 149318818714423, 0.0, 0.0, 0.0
17, 149318832796123, 0.0, 9.809989, 0.0, 149318828714423, 0.0, 0.0, 0.0
18, 149318842796123, 0.0, 9.809989, 0.0, 149318838714423, 0.0, 0.0, 0.0
19, 149318852796123, 0.0, 9.809989, 0.0, 149318848714423, 0.0, 0.0, 0.0
20, 149318862796123, 0.0, 9.809989, 0.0, 149318858714423, 0.0, 0.0, 0.0
21, 149318872796123, 0.0, 9.809989, 0.0, 149318868714423, 0.0, 0.0, 0.0
22, 149318882796123, 0.0, 9.809989, 0.0, 149318878714423, 0.0, 0.0, 0.0
23, 149318892796123, 0.0, 9.809989, 0.0, 149318888714423, 0.0, 0.0, 0.0
24, 149318902796123, 0.0, 9.809989, 0.0, 149318898714423, 0.0, 0.0, 0.0
25, 149318912796123, 0.0, 9.809989, 0.0, 149318908714423, 0.0, 0.0, 0.0
26, 149318922796123, 0.0, 9.809989, 0.0, 149318918714423, 0.0, 0.0, 0.0
27, 149318932796123, 0.0, 9.809989, 0.0, 149318928714423, 0.0, 0.0, 0.0
28, 149318942796123, 0.0, 9.809989, 0.0, 149318938714423, 0.0, 0.0, 0.0
29, 149318952796123, 0.0, 9.809989, 0.0, 149318948714423, 0.0, 0.0, 0.0
30, 149318962796123, 0.0, 9.809989, 0.0, 149318958714423, 0.0, 0.0, 0.0
31, 149318972796123, 0.0, 9.809989, 0.0, 149318968714423, 0.0, 0.0, 0.0
32, 149318982796123, 0.0, 9.809989, 0.0, 149318978714423, 0.0, 0.0, 0.0
33, 149318992796123, 0.0, 9.809989, 0.0, 149318988714423, 0.0, 0.0, 0.0
34, 149319002796123, 0.0, 9.809989, 0.0, 149318998714423, 0.0, 0.0, 0.0
35, 149319012796123, 0.0, 9.809989, 0.0, 149319008714423, 0.0, 0.0, 0.0
36, 149319022796123, 0.0, 9.809989, 0.0, 149319018714423, 0.0, 0.0, 0.0
37, 149319032796123, 0.0, 9.809989, 0.0, 149319028714423, 0.0, 0.0, 0.0
38, 149319042796123, 0.0, 9.809989, 0.0, 149319038714423, 0.0, 0.0, 0.0
39, 149319052796123, 0.0, 9.809989, 0.0, 149319048714423, 0.0, 0.0, 0.0
40, 149319062796123, 0.0, 9.809989, 0.0, 149319058714423, 0.0, 0.0, 0.0
41, 149319072796123, 0.0, 9.809989, 0.0, 149319068714423, 0.0, 0.0, 0.0
42, 149319082796123, 0.0, 9.809989, 0.0, 149319078714423, 0.0, 0.0, 0.0
43, 149319092796123, 0.0, 9.809989, 0.0, 149319088714423, 0.0, 0.0, 0.0
44, 149319102796123, 0.0, 9.809989, 0.0, 149319098714423, 0.0, 0.0, 0.0
45, 149319112796123, 0.0, 9.809989, 0.0, 149319108714423, 0.0, 0.0, 0.0
46, 149319122796123, 0.0, 9.809989, 0.0, 149319118714423, 0.0, 0.0, 0.0
47, 149319132796123, 0.0, 9.809989, 0.0, 149319128714423, 0.0, 0.0, 0.0
48, 149319142796123, 0.0, 9.809989, 0.0, 149319138714423, 0.0, 0.0, 0.0
49, 149319152796123, 0.0, 9.809989, 0.0, 149319148714423, 0.0, 0.0, 0.0
50, 149319162796123, 0.0, 9.809989, 0.0, 149319158714423, 0.0, 0.0, 0.0
51, 149319172796123, 0.0, 9.809989, 0.0, 149319168714423, 0.0, 0.0, 0.0
52, 149319182796123, 0.0, 9.809989, 0.0, 149319178714423, 0.0, 0.0, 0.0
53, 149319192796123, 0.0, 9.809989, 0.0, 149319188714423, 0.0, 0.0, 0.0
54, 149319202796123, 0.0, 9.809989, 0.0, 149319198714423, 0.0, 0.0, 0.0
55, 149319212796123, 0.0, 9.809989, 0.0, 149319208714423, 0.0, 0.0, 0.0
56, 149319222796123, 0.0, 9.809989, 0.0, 149319218714423, 0.0, 0.0, 0.0
57, 149319232796123, 0.0, 9.809989, 0.0, 149319228714423, 0.0, 0.0, 0.0
58, 149319242796123, 0.0, 9.809989, 0.0, 149319238714423, 0.0, 0.0, 0.0
59, 149319252796123, 0.0, 9.809989, 0.0, 149319248714423, 0.0, 0.0, 0.0
60, 149319262796123, 0.0, 9.809989, 0.0, 149319258714423, 0.0, 0.0, 0.0
61, 149319272796123, 0.0, 9.809989, 0.0, 149319268714423, 0.0, 0.0, 0.0
62, 149319282796123, 0.0, 9.809989, 0.0, 149319278714423, 0.0, 0.0, 0.0
63, 149319292796123, 0.0, 9.809989, 0.0, 149319288714423, 0.0, 0.0, 0.0
64, 149319302796123, 0.0, 9.809989, 0.0, 149319298714423, 0.0, 0.0, 0.0
65, 149319312796123, 0.0, 9.809989, 0.0, 149319308714423, 0.0, 0.0, 0.0
66, 149319322796123, 0.0, 9.809989, 0.0, 149319318714423, 0.0, 0.0, 0.0
67, 149319332796123, 0.0, 9.809989, 0.0, 149319328714423, 0.0, 0.0, 0.0
68, 149319342796123, 0.0, 9.809989, 0.0, 149319338714423, 0.0, 0.0, 0.0
69, 149319352796123, 0.0, 9.809989, 0.0, 149319348714423, 0.0, 0.0, 0.0
70, 149319362796123, 0.0, 9.809989, 0.0, 149319358714423, 0.0, 0.0, 0.0
71, 149319372796123, 0.0, 9.809989, 0.0, 149319368714423, 0.0, 0.0, 0.0
72, 149319382796123, 0.0, 9.809989, 0.0, 149319378714423, 0.0, 0.0, 0.0
73, 149319392796123, 0.0, 9.809989, 0.0, 149319388714423, 0.0, 0.0, 0.0
74, 149319402796123, 0.0, 9.809989, 0.0, 149319398714423, 0.0, 0.0, 0.0
75, 149319412796123, 0.0, 9.809989, 0.0, 149319408714423, 0.0, 0.0, 0.0
76, 149319422796123, 0.0, 9.809989, 0.0, 149319418714423, 0.0, 0.0, 0.0
77, 149319432796123, 0.0, 9.809989, 0.0, 149319428714423, 0.0, 0.0, 0.0
78, 149319442796123, 0.07245164, 10.062997, 1.2400794E-4, 149319438714423, 0.0, 0.0, 0.0
79, 149319452796123, 0.21735492, 10.569011, 3.7202385E-4, 149319448714423, 0.0, 0.0, 0.0
80, 149319462796123, 0.3290861, 11.097688, 6.510417E-4, 149319458714423, 0.0, 0.0, 0.0
81, 149319472796123, 0.34607518, 11.441903, 7.750497E-4, 149319468714423, 0.0, 0.0, 0.0
82, 149319482796123, 0.16644967, 11.55999, 8.3705364E-4, 149319478714423, 0.0, 0.0, 0.0
83, 149319492796123, -0.2607577, 11.44429, 7.750497E-4, 149319488714423, 0.0, 0.0, 0.0
84, 149319502796123, -0.749132, 11.154886, 6.510417E-4, 149319498714423, 0.0, 0.0, 0.0
85, 149319512796123, -1.9154577, 9.869234, 9.300596E-5, 149319508714423, 0.0, 0.0, 0.0
86, 149319522796123, -1.9154577, 9.869234, 9.300596E-5, 149319518714423, 0.0, 0.0, 0.0
87, 149319532796123, -1.9154577, 9.869234, 9.300596E-5, 149319528714423, 0.0, 0.0, 0.0
88, 149319542796123, -2.1356027, 9.450676, -6.200397E-5, 149319538714423, 0.0, 0.0, 0.0
89, 149319552796123, -2.2863965, 9.136471, -2.170139E-4, 149319548714423, 0.0, 0.0, 0.0
90, 149319562796123, -2.4009798, 8.844897, -3.1001985E-4, 149319558714423, 0.0, 0.0, 0.0
91, 149319572796123, -2.4596355, 8.658576, -3.7202385E-4, 149319568714423, 0.0, 0.0, 0.0
92, 149319582796123, -2.5088978, 8.484562, -4.340278E-4, 149319578714423, 0.0, 0.0, 0.0
93, 149319592796123, -2.5088978, 8.484562, -4.340278E-4, 149319588714423, 0.0, 0.0, 0.0
94, 149319602796123, -2.5361795, 8.345859, -4.650298E-4, 149319598714423, 0.0, 0.0, 0.0
95, 149319612796123, -2.5381947, 8.252666, -4.650298E-4, 149319608714423, 0.0, 0.0, 0.0
96, 149319622796123, -2.5013952, 8.175875, -4.650298E-4, 149319618714423, 0.0, 0.0, 0.0
97, 149319632796123, -2.4222472, 8.1301155, -4.340278E-4, 149319628714423, 0.0, 0.0, 0.0
98, 149319642796123, -2.310144, 8.110088, -4.0302583E-4, 149319638714423, 0.0, 0.0, 0.0
99, 149319652796123, -2.1601565, 8.100168, -4.0302583E-4, 149319648714423, 0.0, 0.0, 0.0
100, 149319662796123, -1.9281375, 8.087829, -3.4102183E-4, 149319658714423, 0.0, 0.0, 0.0
101, 149319672796123, -1.6363468, 8.079148, -3.1001985E-4, 149319668714423, 0.0, 0.0, 0.0
102, 149319682796123, -1.248078, 8.066406, -2.7901787E-4, 149319678714423, 0.0, 0.0, 0.0
103, 149319692796123, -0.733414, 8.044519, -2.480159E-4, 149319688714423, 0.0, 0.0, 0.0
104, 149319702796123, -0.19633558, 8.023221, -1.8601192E-4, 149319698714423, 0.0, 0.0, 0.0
105, 149319712796123, 0.5162141, 8.019005, -1.5500993E-4, 149319708714423, 0.0, 0.0, 0.0
106, 149319722796123, 1.466859, 8.056858, -1.2400794E-4, 149319718714423, 0.0, 0.0, 0.0
107, 149319732796123, 2.3306983, 8.11973, -9.300596E-5, 149319728714423, 0.0, 0.0, 0.0
108, 149319742796123, 2.3306983, 8.11973, -9.300596E-5, 149319738714423, 0.0, 0.0, 0.0
109, 149319752796123, 3.2876055, 8.257472, -6.200397E-5, 149319748714423, 0.0, 0.0, 0.0
110, 149319762796123, 4.3314114, 8.546597, -3.1001986E-5, 149319758714423, 0.0, 0.0, 0.0
111, 149319772796123, 5.2948604, 8.950955, -0.0, 149319768714423, 0.0, 0.0, 0.0
112, 149319782796123, 6.152685, 9.414745, 0.0, 149319778714423, 0.0, 0.0, 0.0
113, 149319792796123, 6.8912454, 9.910529, 3.1001986E-5, 149319788714423, 0.0, 0.0, 0.0
114, 149319802796123, 7.584388, 10.505085, 3.1001986E-5, 149319798714423, 0.0, 0.0, 0.0
115, 149319812796123, 8.082807, 11.123916, 6.200397E-5, 149319808714423, 0.0, 0.0, 0.0
116, 149319822796123, 8.350385, 11.684307, 6.200397E-5, 149319818714423, 0.0, 0.0, 0.0
117, 149319832796123, 8.473835, 12.254806, 6.200397E-5, 149319828714423, 0.0, 0.0, 0.0
118, 149319842796123, 8.458086, 12.797712, 9.300596E-5, 149319838714423, 0.0, 0.0, 0.0
119, 149319852796123, 8.458086, 12.797712, 9.300596E-5, 149319848714423, 0.0, 0.0, 0.0
120, 149319862796123, 8.458086, 12.797712, 9.300596E-5, 149319858714423, 0.0, 0.0, 0.0
121, 149319872796123, 7.1273565, 14.045295, 9.300596E-5, 149319868714423, 0.0, 0.0, 0.0
122, 149319882796123, 6.277933, 14.266494, 9.300596E-5, 149319878714423, 0.0, 0.0, 0.0
123, 149319892796123, 5.0811324, 14.417412, 9.300596E-5, 149319888714423, 0.0, 0.0, 0.0
124, 149319902796123, 3.8497956, 14.448692, 6.200397E-5, 149319898714423, 0.0, 0.0, 0.0
125, 149319912796123, 0.06746032, 14.058099, 6.200397E-5, 149319908714423, 0.0, 0.0, 0.0
126, 149319922796123, 0.06746032, 14.058099, 6.200397E-5, 149319918714423, 0.0, 0.0, 0.0
127, 149319932796123, 0.06746032, 14.058099, 6.200397E-5, 149319928714423, 0.0, 0.0, 0.0
128, 149319942796123, -1.1737972, 13.817089, 6.200397E-5, 149319938714423, 0.0, 0.0, 0.0
129, 149319952796123, -2.5210814, 13.511998, 6.200397E-5, 149319948714423, 0.0, 0.0, 0.0
130, 149319962796123, -3.9393914, 13.138393, 3.1001986E-5, 149319958714423, 0.0, 0.0, 0.0
131, 149319972796123, -5.2564797, 12.696801, 3.1001986E-5, 149319968714423, 0.0, 0.0, 0.0
132, 149319982796123, -6.403026, 12.129806, 3.1001986E-5, 149319978714423, 0.0, 0.0, 0.0
133, 149319992796123, -7.3915553, 11.4242935, 3.1001986E-5, 149319988714423, 0.0, 0.0, 0.0
134, 149320002796123, -8.249474, 10.605004, 3.1001986E-5, 149319998714423, 0.0, 0.0, 0.0
135, 149320012796123, -8.98884, 9.67975, 0.0, 149320008714423, 0.0, 0.0, 0.0
136, 149320022796123, -9.54917, 8.717944, 0.0, 149320018714423, 0.0, 0.0, 0.0
137, 149320032796123, -9.877171, 7.728113, -0.0, 149320028714423, 0.0, 0.0, 0.0
138, 149320042796123, -9.877171, 7.728113, -0.0, 149320038714423, 0.0, 0.0, 0.0
139, 149320052796123, -9.466984, 5.417535, -0.0, 149320048714423, 0.0, 0.0, 0.0
140, 149320062796123, -9.466984, 5.417535, -0.0, 149320058714423, 0.0, 0.0, 0.0
141, 149320072796123, -8.985956, 4.840991, -0.0, 149320068714423, 0.0, 0.0, 0.0
142, 149320082796123, -8.3437195, 4.35922, -3.1001986E-5, 149320078714423, 0.0, 0.0, 0.0
143, 149320092796123, -7.505085, 3.9740205, -3.1001986E-5, 149320088714423, 0.0, 0.0, 0.0
144, 149320102796123, -6.605562, 3.7230904, -3.1001986E-5, 149320098714423, 0.0, 0.0, 0.0
145, 149320112796123, -5.621404, 3.5726068, -3.1001986E-5, 149320108714423, 0.0, 0.0, 0.0
146, 149320122796123, -4.495257, 3.529545, -3.1001986E-5, 149320118714423, 0.0, 0.0, 0.0
147, 149320132796123, -3.104415, 3.603268, -3.1001986E-5, 149320128714423, 0.0, 0.0, 0.0
148, 149320142796123, -3.104415, 3.603268, -3.1001986E-5, 149320138714423, 0.0, 0.0, 0.0
149, 149320152796123, -1.5341333, 3.7803822, -3.1001986E-5, 149320148714423, 0.0, 0.0, 0.0
150, 149320162796123, 0.06826637, 4.041202, -3.1001986E-5, 149320158714423, 0.0, 0.0, 0.0
151, 149320172796123, 1.6999319, 4.387525, -3.1001986E-5, 149320168714423, 0.0, 0.0, 0.0
152, 149320182796123, 3.2217884, 4.821181, -3.1001986E-5, 149320178714423, 0.0, 0.0, 0.0
153, 149320192796123, 4.5696616, 5.334109, -3.1001986E-5, 149320188714423, 0.0, 0.0, 0.0
154, 149320202796123, 5.8600574, 5.952133, -3.1001986E-5, 149320198714423, 0.0, 0.0, 0.0
155, 149320212796123, 7.02598, 6.681982, -3.1001986E-5, 149320208714423, 0.0, 0.0, 0.0
156, 149320222796123, 7.882658, 7.4538693, -3.1001986E-5, 149320218714423, 0.0, 0.0, 0.0
157, 149320232796123, 8.629558, 8.461124, -0.0, 149320228714423, 0.0, 0.0, 0.0
158, 149320242796123, 9.121095, 9.465185, -0.0, 149320238714423, 0.0, 0.0, 0.0
159, 149320252796123, 9.428262, 10.515192, -0.0, 149320248714423, 0.0, 0.0, 0.0
160, 149320262796123, 9.552456, 11.549511, -0.0, 149320258714423, 0.0, 0.0, 0.0
161, 149320272796123, 9.513269, 12.543, -0.0, 149320268714423, 0.0, 0.0, 0.0
162, 149320282796123, 9.306858, 13.454707, -0.0, 149320278714423, 0.0, 0.0, 0.0
163, 149320292796123, 8.926309, 14.263393, -0.0, 149320288714423, 0.0, 0.0, 0.0
164, 149320302796123, 8.400112, 14.947515, -0.0, 149320298714423, 0.0, 0.0, 0.0
165, 149320312796123, 7.6561265, 15.503597, -0.0, 149320308714423, 0.0, 0.0, 0.0
166, 149320322796123, 6.709109, 15.870009, -0.0, 149320318714423, 0.0, 0.0, 0.0
167, 149320332796123, 5.293186, 16.136812, -0.0, 149320328714423, 0.0, 0.0, 0.0
168, 149320342796123, 3.8582902, 16.24349, -0.0, 149320338714423, 0.0, 0.0, 0.0
169, 149320352796123, 2.390346, 16.245598, 0.0, 149320348714423, 0.0, 0.0, 0.0
170, 149320362796123, 0.60627484, 16.12621, 0.0, 149320358714423, 0.0, 0.0, 0.0
171, 149320372796123, -1.1276352, 15.888301, 0.0, 149320368714423, 0.0, 0.0, 0.0
172, 149320382796123, -2.5477433, 15.605687, 0.0, 149320378714423, 0.0, 0.0, 0.0
173, 149320392796123, -4.1001987, 15.200615, 0.0, 149320388714423, 0.0, 0.0, 0.0
174, 149320402796123, -5.512804, 14.73081, 0.0, 149320398714423, 0.0, 0.0, 0.0
175, 149320412796123, -6.6782928, 14.24349, 0.0, 149320408714423, 0.0, 0.0, 0.0
176, 149320422796123, -7.73791, 13.673798, 0.0, 149320418714423, 0.0, 0.0, 0.0
177, 149320432796123, -8.518385, 13.126613, 0.0, 149320428714423, 0.0, 0.0, 0.0
178, 149320442796123, -9.139231, 12.555712, -0.0, 149320438714423, 0.0, 0.0, 0.0
179, 149320452796123, -9.581535, 11.950491, -0.0, 149320448714423, 0.0, 0.0, 0.0
180, 149320462796123, -9.829366, 11.275206, -0.0, 149320458714423, 0.0, 0.0, 0.0
181, 149320472796123, -9.897167, 10.548395, -0.0, 149320468714423, 0.0, 0.0, 0.0
182, 149320482796123, -9.79393, 9.690508, -0.0, 149320478714423, 0.0, 0.0, 0.0
183, 149320492796123, -9.536056, 8.871777, -0.0, 149320488714423, 0.0, 0.0, 0.0
184, 149320502796123, -9.15005, 8.091611, 0.0, 149320498714423, 0.0, 0.0, 0.0
185, 149320512796123, -9.15005, 8.091611, 0.0, 149320508714423, 0.0, 0.0, 0.0
186, 149320522796123, -8.577567, 7.240142, 0.0, 149320518714423, 0.0, 0.0, 0.0
187, 149320532796123, -7.945871, 6.496032, 0.0, 149320528714423, 0.0, 0.0, 0.0
188, 149320542796123, -7.2669897, 5.833582, 0.0, 149320538714423, 0.0, 0.0, 0.0
189, 149320552796123, -6.5207405, 5.2168903, 0.0, 149320548714423, 0.0, 0.0, 0.0
190, 149320562796123, -5.664311, 4.6161957, 0.0, 149320558714423, 0.0, 0.0, 0.0
191, 149320572796123, -4.7063494, 4.059617, 0.0, 149320568714423, 0.0, 0.0, 0.0
192, 149320582796123, -4.7063494, 4.059617, 0.0, 149320578714423, 0.0, 0.0, 0.0
193, 149320592796123, -4.7063494, 4.059617, 0.0, 149320588714423, 0.0, 0.0, 0.0
194, 149320602796123, -4.7063494, 4.059617, 0.0, 149320598714423, 0.0, 0.0, 0.0
195, 149320612796123, -0.39121407, 3.2083955, 0.0, 149320608714423, 0.0, 0.0, 0.0
196, 149320622796123, 1.0379155, 3.2757318, 0.0, 149320618714423, 0.0, 0.0, 0.0
197, 149320632796123, 2.4745786, 3.448351, 0.0, 149320628714423, 0.0, 0.0, 0.0
198, 149320642796123, 3.8216767, 3.6960258, 0.0, 149320638714423, 0.0, 0.0, 0.0
199, 149320652796123, 5.1271086, 4.006015, 0.0, 149320648714423, 0.0, 0.0, 0.0
200, 149320662796123, 6.5802336, 4.430804, 0.0, 149320658714423, 0.0, 0.0, 0.0
201, 149320672796123, 7.838449, 4.9089785, 0.0, 149320668714423, 0.0, 0.0, 0.0
202, 149320682796123, 8.936602, 5.46162, 0.0, 149320678714423, 0.0, 0.0, 0.0
203, 149320692796123, 9.902903, 6.1605287, 0.0, 149320688714423, 0.0, 0.0, 0.0
204, 149320702796123, 10.626985, 6.9508624, 0.0, 149320698714423, 0.0, 0.0, 0.0
205, 149320712796123, 11.176309, 7.8944697, 0.0, 149320708714423, 0.0, 0.0, 0.0
206, 149320722796123, 11.501303, 8.896733, 0.0, 149320718714423, 0.0, 0.0, 0.0
207, 149320732796123, 11.639695, 9.937749, 0.0, 149320728714423, 0.0, 0.0, 0.0
208, 149320742796123, 11.591302, 11.011502, 0.0, 149320738714423, 0.0, 0.0, 0.0
209, 149320752796123, 11.355904, 12.050286, 0.0, 149320748714423, 0.0, 0.0, 0.0
210, 149320762796123, 10.961, 13.024213, -0.0, 149320758714423, 0.0, 0.0, 0.0
211, 149320772796123, 10.961, 13.024213, -0.0, 149320768714423, 0.0, 0.0, 0.0
212, 149320782796123, 10.427394, 13.883899, -0.0, 149320778714423, 0.0, 0.0, 0.0
213, 149320792796123, 9.699468, 14.682385, -0.0, 149320788714423, 0.0, 0.0, 0.0
214, 149320802796123, 8.69243, 15.39571, -0.0, 149320798714423, 0.0, 0.0, 0.0
215, 149320812796123, 7.617684, 15.876892, -0.0, 149320808714423, 0.0, 0.0, 0.0
216, 149320822796123, 6.3593445, 16.233416, -0.0, 149320818714423, 0.0, 0.0, 0.0
217, 149320832796123, 4.9907, 16.43099, -0.0, 149320828714423, 0.0, 0.0, 0.0
218, 149320842796123, 3.4905756, 16.474485, -0.0, 149320838714423, 0.0, 0.0, 0.0
219, 149320852796123, 1.8139262, 16.396889, -0.0, 149320848714423, 0.0, 0.0, 0.0
220, 149320862796123, -0.095238104, 16.203808, -0.0, 149320858714423, 0.0, 0.0, 0.0
221, 149320872796123, -1.9720984, 15.921814, -0.0, 149320868714423, 0.0, 0.0, 0.0
222, 149320882796123, -3.8304503, 15.554099, -0.0, 149320878714423, 0.0, 0.0, 0.0
223, 149320892796123, -5.461372, 15.157491, -0.0, 149320888714423, 0.0, 0.0, 0.0
224, 149320902796123, -6.992901, 14.714689, -0.0, 149320898714423, 0.0, 0.0, 0.0
225, 149320912796123, -8.481182, 14.182695, -0.0, 149320908714423, 0.0, 0.0, 0.0
226, 149320922796123, -8.481182, 14.182695, -0.0, 149320918714423, 0.0, 0.0, 0.0
227, 149320932796123, -9.6769285, 13.625187, -0.0, 149320928714423, 0.0, 0.0, 0.0
228, 149320942796123, -10.51699, 13.112507, -0.0, 149320938714423, 0.0, 0.0, 0.0
229, 149320952796123, -11.192492, 12.560114, -0.0, 149320948714423, 0.0, 0.0, 0.0
230, 149320962796123, -11.662203, 11.9658985, -0.0, 149320958714423, 0.0, 0.0, 0.0
231, 149320972796123, -11.872396, 11.418186, -0.0, 149320968714423, 0.0, 0.0, 0.0
232, 149320982796123, -11.886502, 10.857795, -0.0, 149320978714423, 0.0, 0.0, 0.0
233, 149320992796123, -11.697297, 10.226594, -0.0, 149320988714423, 0.0, 0.0, 0.0
234, 149321002796123, -11.368986, 9.657087, -0.0, 149320998714423, 0.0, 0.0, 0.0
235, 149321012796123, -10.879, 9.050161, -0.0, 149321008714423, 0.0, 0.0, 0.0
236, 149321022796123, -10.879, 9.050161, -0.0, 149321018714423, 0.0, 0.0, 0.0
237, 149321032796123, -9.47802, 7.6091585, -0.0, 149321028714423, 0.0, 0.0, 0.0
238, 149321042796123, -7.6991262, 6.024306, -0.0, 149321038714423, 0.0, 0.0, 0.0
239, 149321052796123, -7.6991262, 6.024306, -0.0, 149321048714423, 0.0, 0.0, 0.0
240, 149321062796123, -6.7218194, 5.280351, -0.0, 149321058714423, 0.0, 0.0, 0.0
241, 149321072796123, -5.7038074, 4.6250005, -0.0, 149321068714423, 0.0, 0.0, 0.0
242, 149321082796123, -4.619141, 4.061787, -0.0, 149321078714423, 0.0, 0.0, 0.0
243, 149321092796123, -3.3304193, 3.5614152, -0.0, 149321088714423, 0.0, 0.0, 0.0
244, 149321102796123, -1.9453126, 3.1972659, -0.0, 149321098714423, 0.0, 0.0, 0.0
245, 149321112796123, -1.9453126, 3.1972659, -0.0, 149321108714423, 0.0, 0.0, 0.0
246, 149321122796123, -1.9453126, 3.1972659, -0.0, 149321118714423, 0.0, 0.0, 0.0
247, 149321132796123, -1.9453126, 3.1972659, -0.0, 149321128714423, 0.0, 0.0, 0.0
248, 149321142796123, 3.6093752, 3.0870848, -0.0, 149321138714423, 0.0, 0.0, 0.0
249, 149321152796123, 5.05723, 3.339038, -0.0, 149321148714423, 0.0, 0.0, 0.0
250, 149321162796123, 6.3636847, 3.6866632, -0.0, 149321158714423, 0.0, 0.0, 0.0
251, 149321172796123, 7.4671073, 4.1118865, -0.0, 149321168714423, 0.0, 0.0, 0.0
252, 149321182796123, 8.424325, 4.621311, -0.0, 149321178714423, 0.0, 0.0, 0.0
253, 149321192796123, 8.424325, 4.621311, -0.0, 149321188714423, 0.0, 0.0, 0.0
254, 149321202796123, 9.291915, 5.2280197, -0.0, 149321198714423, 0.0, 0.0, 0.0
255, 149321212796123, 10.006294, 5.916977, -0.0, 149321208714423, 0.0, 0.0, 0.0
256, 149321222796123, 10.006294, 5.916977, -0.0, 149321218714423, 0.0, 0.0, 0.0
257, 149321232796123, 10.006294, 5.916977, -0.0, 149321228714423, 0.0, 0.0, 0.0
258, 149321242796123, 11.206691, 8.403894, -0.0, 149321238714423, 0.0, 0.0, 0.0
259, 149321252796123, 11.280786, 9.278027, -0.0, 149321248714423, 0.0, 0.0, 0.0
260, 149321262796123, 11.158297, 10.297588, -0.0, 149321258714423, 0.0, 0.0, 0.0
261, 149321272796123, 10.824808, 11.415985, -0.0, 149321268714423, 0.0, 0.0, 0.0
262, 149321282796123, 10.414404, 12.339689, -0.0, 149321278714423, 0.0, 0.0, 0.0
263, 149321292796123, 9.856678, 13.304905, -0.0, 149321288714423, 0.0, 0.0, 0.0
264, 149321302796123, 9.242467, 14.159599, -0.0, 149321298714423, 0.0, 0.0, 0.0
265, 149321312796123, 8.47182, 15.03401, -0.0, 149321308714423, 0.0, 0.0, 0.0
266, 149321322796123, 7.572452, 15.853207, -0.0, 149321318714423, 0.0, 0.0, 0.0
267, 149321332796123, 6.5983076, 16.547588, -0.0, 149321328714423, 0.0, 0.0, 0.0
268, 149321342796123, 5.711775, 16.975912, -0.0, 149321338714423, 0.0, 0.0, 0.0
269, 149321352796123, 4.5794272, 17.253597, -0.0, 149321348714423, 0.0, 0.0, 0.0
270, 149321362796123, 3.5072236, 17.325893, -0.0, 149321358714423, 0.0, 0.0, 0.0
271, 149321372796123, 2.262835, 17.239088, -0.0, 149321368714423, 0.0, 0.0, 0.0
272, 149321382796123, 1.0058905, 17.023687, -0.0, 149321378714423, 0.0, 0.0, 0.0
273, 149321392796123, -0.57474583, 16.65839, -0.0, 149321388714423, 0.0, 0.0, 0.0
274, 149321402796123, -2.1279764, 16.226904, -0.0, 149321398714423, 0.0, 0.0, 0.0
275, 149321412796123, -3.7582157, 15.6924925, -0.0, 149321408714423, 0.0, 0.0, 0.0
276, 149321422796123, -3.7582157, 15.6924925, -0.0, 149321418714423, 0.0, 0.0, 0.0
277, 149321432796123, -5.509735, 15.019594, -0.0, 149321428714423, 0.0, 0.0, 0.0
278, 149321442796123, -7.1263027, 14.310486, -0.0, 149321438714423, 0.0, 0.0, 0.0
279, 149321452796123, -8.737723, 13.454986, -0.0, 149321448714423, 0.0, 0.0, 0.0
280, 149321462796123, -9.946274, 12.6485, -0.0, 149321458714423, 0.0, 0.0, 0.0
281, 149321472796123, -11.002109, 11.777809, 0.0, 149321468714423, 0.0, 0.0, 0.0
282, 149321482796123, -11.908204, 10.695406, 0.0, 149321478714423, 0.0, 0.0, 0.0
283, 149321492796123, -12.428107, 9.657243, 0.0, 149321488714423, 0.0, 0.0, 0.0
284, 149321502796123, -12.6874075, 8.694042, 0.0, 149321498714423, 0.0, 0.0, 0.0
285, 149321512796123, -12.746901, 7.618676, 0.0, 149321508714423, 0.0, 0.0, 0.0
286, 149321522796123, -12.595797, 6.714069, 0.0, 149321518714423, 0.0, 0.0, 0.0
287, 149321532796123, -12.231214, 5.8282804, 0.0, 149321528714423, 0.0, 0.0, 0.0
288, 149321542796123, -11.62779, 5.0212054, 0.0, 149321538714423, 0.0, 0.0, 0.0
289, 149321552796123, -10.709512, 4.2793593, 0.0, 149321548714423, 0.0, 0.0, 0.0
290, 149321562796123, -9.727648, 3.7511473, 0.0, 149321558714423, 0.0, 0.0, 0.0
291, 149321572796123, -8.442957, 3.2847223, 0.0, 149321568714423, 0.0, 0.0, 0.0
292, 149321582796123, -7.25927, 3.0070376, 0.0, 149321578714423, 0.0, 0.0, 0.0
293, 149321592796123, -6.0638022, 2.859096, 0.0, 149321588714423, 0.0, 0.0, 0.0
294, 149321602796123, -4.7356153, 2.840309, 0.0, 149321598714423, 0.0, 0.0, 0.0
295, 149321612796123, -3.3454864, 2.9540243, 0.0, 149321608714423, 0.0, 0.0, 0.0
296, 149321622796123, -2.0010543, 3.1769285, 0.0, 149321618714423, 0.0, 0.0, 0.0
297, 149321632796123, -2.0010543, 3.1769285, 0.0, 149321628714423, 0.0, 0.0, 0.0
298, 149321642796123, -0.019624257, 3.6914065, 0.0, 149321638714423, 0.0, 0.0, 0.0
299, 149321652796123, 1.1139944, 4.0836434, 0.0, 149321648714423, 0.0, 0.0, 0.0
300, 149321662796123, 2.3776972, 4.611204, 0.0, 149321658714423, 0.0, 0.0, 0.0
301, 149321672796123, 3.5878909, 5.2198973, 0.0, 149321668714423, 0.0, 0.0, 0.0
302, 149321682796123, 4.470393, 5.7436447, 0.0, 149321678714423, 0.0, 0.0, 0.0
303, 149321692796123, 5.383588, 6.338821, 0.0, 149321688714423, 0.0, 0.0, 0.0
304, 149321702796123, 6.257751, 6.933966, 0.0, 149321698714423, 0.0, 0.0, 0.0
305, 149321712796123, 7.162265, 7.5849147, 0.0, 149321708714423, 0.0, 0.0, 0.0
306, 149321722796123, 7.965309, 8.20449, 0.0, 149321718714423, 0.0, 0.0, 0.0
307, 149321732796123, 8.710597, 8.831287, 0.0, 149321728714423, 0.0, 0.0, 0.0
308, 149321742796123, 9.387928, 9.470766, 0.0, 149321738714423, 0.0, 0.0, 0.0
309, 149321752796123, 9.867033, 10.0563, 0.0, 149321748714423, 0.0, 0.0, 0.0
310, 149321762796123, 10.148686, 10.660002, 0.0, 149321758714423, 0.0, 0.0, 0.0
311, 149321772796123, 10.148686, 10.660002, 0.0, 149321768714423, 0.0, 0.0, 0.0
312, 149321782796123, 10.065012, 11.707311, 0.0, 149321778714423, 0.0, 0.0, 0.0
313, 149321792796123, 10.065012, 11.707311, 0.0, 149321788714423, 0.0, 0.0, 0.0
314, 149321802796123, 9.726873, 12.197607, 0.0, 149321798714423, 0.0, 0.0, 0.0
315, 149321812796123, 9.217728, 12.647787, 0.0, 149321808714423, 0.0, 0.0, 0.0
316, 149321822796123, 8.595331, 13.033204, 0.0, 149321818714423, 0.0, 0.0, 0.0
317, 149321832796123, 7.871807, 13.36229, 0.0, 149321828714423, 0.0, 0.0, 0.0
318, 149321842796123, 7.0635853, 13.635604, 0.0, 149321838714423, 0.0, 0.0, 0.0
319, 149321852796123, 6.2123637, 13.845208, 0.0, 149321848714423, 0.0, 0.0, 0.0
320, 149321862796123, 5.4477, 13.977215, 0.0, 149321858714423, 0.0, 0.0, 0.0
321, 149321872796123, 4.530475, 14.074188, 0.0, 149321868714423, 0.0, 0.0, 0.0
322, 149321882796123, 3.6816099, 14.109004, 0.0, 149321878714423, 0.0, 0.0, 0.0
323, 149321892796123, 2.8828437, 14.095208, 0.0, 149321888714423, 0.0, 0.0, 0.0
324, 149321902796123, 2.0749319, 14.035095, 0.0, 149321898714423, 0.0, 0.0, 0.0
325, 149321912796123, -0.051184278, 13.534289, 0.0, 149321908714423, 0.0, 0.0, 0.0
326, 149321922796123, -0.051184278, 13.534289, 0.0, 149321918714423, 0.0, 0.0, 0.0
327, 149321932796123, -0.051184278, 13.534289, 0.0, 149321928714423, 0.0, 0.0, 0.0
328, 149321942796123, -0.051184278, 13.534289, 0.0, 149321938714423, 0.0, 0.0, 0.0
329, 149321952796123, -0.6024616, 13.298798, 0.0, 149321948714423, 0.0, 0.0, 0.0
330, 149321962796123, -1.109158, 13.0337, 0.0, 149321958714423, 0.0, 0.0, 0.0
331, 149321972796123, -1.5731338, 12.742808, 0.0, 149321968714423, 0.0, 0.0, 0.0
332, 149321982796123, -1.9519781, 12.464597, 0.0, 149321978714423, 0.0, 0.0, 0.0
333, 149321992796123, -1.9519781, 12.464597, 0.0, 149321988714423, 0.0, 0.0, 0.0
334, 149322002796123, -2.6018417, 11.86849, 0.0, 149321998714423, 0.0, 0.0, 0.0
335, 149322012796123, -2.8684278, 11.555587, 0.0, 149322008714423, 0.0, 0.0, 0.0
336, 149322022796123, -3.0651975, 11.280414, 0.0, 149322018714423, 0.0, 0.0, 0.0
337, 149322032796123, -3.2423737, 10.978207, 0.0, 149322028714423, 0.0, 0.0, 0.0
338, 149322042796123, -3.3603983, 10.722502, 0.0, 149322038714423, 0.0, 0.0, 0.0
339, 149322052796123, -3.4554193, 10.440694, 0.0, 149322048714423, 0.0, 0.0, 0.0
340, 149322062796123, -3.5056736, 10.204893, 0.0, 149322058714423, 0.0, 0.0, 0.0
341, 149322072796123, -3.525205, 9.99132, 0.0, 149322068714423, 0.0, 0.0, 0.0
342, 149322082796123, -3.5180743, 9.806548, 0.0, 149322078714423, 0.0, 0.0, 0.0
343, 149322092796123, -3.483879, 9.629961, 0.0, 149322088714423, 0.0, 0.0, 0.0
344, 149322102796123, -3.4294398, 9.493335, 0.0, 149322098714423, 0.0, 0.0, 0.0
345, 149322112796123, -3.3453312, 9.368087, 0.0, 149322108714423, 0.0, 0.0, 0.0
346, 149322122796123, -3.3453312, 9.368087, 0.0, 149322118714423, 0.0, 0.0, 0.0
347, 149322132796123, -3.1300845, 9.197205, -0.0, 149322128714423, 0.0, 0.0, 0.0
348, 149322142796123, -3.0197484, 9.147601, -0.0, 149322138714423, 0.0, 0.0, 0.0
349, 149322152796123, -2.8535469, 9.096076, -0.0, 149322148714423, 0.0, 0.0, 0.0
350, 149322162796123, -2.7078373, 9.06433, -0.0, 149322158714423, 0.0, 0.0, 0.0
351, 149322172796123, -2.5634923, 9.0399, -0.0, 149322168714423, 0.0, 0.0, 0.0
352, 149322182796123, -2.5634923, 9.0399, -0.0, 149322178714423, 0.0, 0.0, 0.0
353, 149322192796123, -2.2761037, 9.007999, -0.0, 149322188714423, 0.0, 0.0, 0.0
354, 149322202796123, -2.137804, 8.996063, -3.1001986E-5, 149322198714423, 0.0, 0.0, 0.0
355, 149322212796123, -2.137804, 8.996063, -3.1001986E-5, 149322208714423, 0.0, 0.0, 0.0
356, 149322222796123, -1.9923736, 8.981957, -3.1001986E-5, 149322218714423, 0.0, 0.0, 0.0
357, 149322232796123, -1.8665676, 8.96841, -3.1001986E-5, 149322228714423, 0.0, 0.0, 0.0
358, 149322242796123, -1.7615949, 8.955358, -3.1001986E-5, 149322238714423, 0.0, 0.0, 0.0
359, 149322252796123, -1.6509488, 8.938771, -3.1001986E-5, 149322248714423, 0.0, 0.0, 0.0
360, 149322262796123, -1.5277779, 8.917814, -3.1001986E-5, 149322258714423, 0.0, 0.0, 0.0
361, 149322272796123, -1.3883619, 8.893291, -3.1001986E-5, 149322268714423, 0.0, 0.0, 0.0
362, 149322282796123, -1.2378163, 8.86787, -0.0, 149322278714423, 0.0, 0.0, 0.0
363, 149322292796123, -1.0396206, 8.83817, -0.0, 149322288714423, 0.0, 0.0, 0.0
364, 149322302796123, -0.84697425, 8.8150425, -0.0, 149322298714423, 0.0, 0.0, 0.0
365, 149322312796123, -0.640129, 8.798364, -0.0, 149322308714423, 0.0, 0.0, 0.0
366, 149322322796123, -0.43458584, 8.792659, 0.0, 149322318714423, 0.0, 0.0, 0.0
367, 149322332796123, -0.23003474, 8.80196, 0.0, 149322328714423, 0.0, 0.0, 0.0
368, 149322342796123, -0.040674604, 8.830885, 0.0, 149322338714423, 0.0, 0.0, 0.0
369, 149322352796123, 0.1124752, 8.879248, 0.0, 149322348714423, 0.0, 0.0, 0.0
370, 149322362796123, 0.22966272, 8.947917, 0.0, 149322358714423, 0.0, 0.0, 0.0
371, 149322372796123, 0.30707467, 9.035684, 0.0, 149322368714423, 0.0, 0.0, 0.0
372, 149322382796123, 0.34430805, 9.144005, 0.0, 149322378714423, 0.0, 0.0, 0.0
373, 149322392796123, 0.33925474, 9.269315, 0.0, 149322388714423, 0.0, 0.0, 0.0
374, 149322402796123, 0.29597595, 9.402717, 0.0, 149322398714423, 0.0, 0.0, 0.0
375, 149322412796123, 0.22529143, 9.533483, -0.0, 149322408714423, 0.0, 0.0, 0.0
376, 149322422796123, 0.13395958, 9.661211, -0.0, 149322418714423, 0.0, 0.0, 0.0
377, 149322432796123, 0.05350943, 9.755085, -3.1001986E-5, 149322428714423, 0.0, 0.0, 0.0
378, 149322442796123, 0.004433284, 9.805866, -3.1001986E-5, 149322438714423, 0.0, 0.0, 0.0
379, 149322452796123, 0.0, 9.809989, 0.0, 149322448714423, 0.0, 0.0, 0.0
380, 149322462796123, 0.0, 9.809989, 0.0, 149322458714423, 0.0, 0.0, 0.0
381, 149322472796123, 0.0, 9.809989, 0.0, 149322468714423, 0.0, 0.0, 0.0
382, 149322482796123, 0.0, 9.809989, 0.0, 149322478714423, 0.0, 0.0, 0.0
383, 149322492796123, 0.0, 9.809989, 0.0, 149322488714423, 0.0, 0.0, 0.0
384, 149322502796123, 0.0, 9.809989, 0.0, 149322498714423, 0.0, 0.0, 0.0
385, 149322512796123, 0.0, 9.809989, 0.0, 149322508714423, 0.0, 0.0, 0.0
386, 149322522796123, 0.0, 9.809989, 0.0, 149322518714423, 0.0, 0.0, 0.0
387, 149322532796123, 0.0, 9.809989, 0.0, 149322528714423, 0.0, 0.0, 0.0
388, 149322542796123, 0.0, 9.809989, 0.0, 149322538714423, 0.0, 0.0, 0.0
389, 149322552796123, 0.0, 9.809989, 0.0, 149322548714423, 0.0, 0.0, 0.0
390, 149322562796123, 0.0, 9.809989, 0.0, 149322558714423, 0.0, 0.0, 0.0
391, 149322572796123, 0.0, 9.809989, 0.0, 149322568714423, 0.0, 0.0, 0.0
392, 149322582796123, 0.0, 9.809989, 0.0, 149322578714423, 0.0, 0.0, 0.0
393, 149322592796123, 0.0, 9.809989, 0.0, 149322588714423, 0.0, 0.0, 0.0
394, 149322602796123, 0.0, 9.809989, 0.0, 149322598714423, 0.0, 0.0, 0.0
395, 149322612796123, 0.0, 9.809989, 0.0, 149322608714423, 0.0, 0.0, 0.0
396, 149322622796123, 0.0, 9.809989, 0.0, 149322618714423, 0.0, 0.0, 0.0
397, 149322632796123, 0.0, 9.809989, 0.0, 149322628714423, 0.0, 0.0, 0.0
398, 149322642796123, 0.0, 9.809989, 0.0, 149322638714423, 0.0, 0.0, 0.0
399, 149322652796123, 0.0, 9.809989, 0.0, 149322648714423, 0.0, 0.0, 0.0
400, 149322662796123, 0.0, 9.809989, 0.0, 149322658714423, 0.0, 0.0, 0.0
401, 149322672796123, 0.0, 9.809989, 0.0, 149322668714423, 0.0, 0.0, 0.0
402, 149322682796123, 0.0, 9.809989, 0.0, 149322678714423, 0.0, 0.0, 0.0
403, 149322692796123, 0.0, 9.809989, 0.0, 149322688714423, 0.0, 0.0, 0.0
404, 149322702796123, 0.0, 9.809989, 0.0, 149322698714423, 0.0, 0.0, 0.0
405, 149322712796123, 0.0, 9.809989, 0.0, 149322708714423, 0.0, 0.0, 0.0
406, 149322722796123, 0.0, 9.809989, 0.0, 149322718714423, 0.0, 0.0, 0.0
407, 149322732796123, 0.0, 9.809989, 0.0, 149322728714423, 0.0, 0.0, 0.0
408, 149322742796123, 0.0, 9.809989, 0.0, 149322738714423, 0.0, 0.0, 0.0
409, 149322752796123, 0.0, 9.809989, 0.0, 149322748714423, 0.0, 0.0, 0.0
410, 149322762796123, 0.0, 9.809989, 0.0, 149322758714423, 0.0, 0.0, 0.0
411, 149322772796123, 0.0, 9.809989, 0.0, 149322768714423, 0.0, 0.0, 0.0
412, 149322782796123, 0.0, 9.809989, 0.0, 149322778714423, 0.0, 0.0, 0.0
413, 149322792796123, 0.0, 9.809989, 0.0, 149322788714423, 0.0, 0.0, 0.0
414, 149322802796123, 0.0, 9.809989, 0.0, 149322798714423, 0.0, 0.0, 0.0
415, 149322812796123, 0.0, 9.809989, 0.0, 149322808714423, 0.0, 0.0, 0.0
416, 149322822796123, 0.0, 9.809989, 0.0, 149322818714423, 0.0, 0.0, 0.0
417, 149322832796123, 0.0, 9.809989, 0.0, 149322828714423, 0.0, 0.0, 0.0
418, 149322842796123, 0.0, 9.809989, 0.0, 149322838714423, 0.0, 0.0, 0.0
419, 149322852796123, 0.0, 9.809989, 0.0, 149322848714423, 0.0, 0.0, 0.0
420, 149322862796123, 0.0, 9.809989, 0.0, 149322858714423, 0.0, 0.0, 0.0
421, 149322872796123, 0.0, 9.809989, 0.0, 149322868714423, 0.0, 0.0, 0.0
422, 149322882796123, 0.0, 9.809989, 0.0, 149322878714423, 0.0, 0.0, 0.0
423, 149322892796123, 0.0, 9.809989, 0.0, 149322888714423, 0.0, 0.0, 0.0
424, 149322902796123, 0.0, 9.809989, 0.0, 149322898714423, 0.0, 0.0, 0.0
425, 149322912796123, 0.0, 9.809989, 0.0, 149322908714423, 0.0, 0.0, 0.0
426, 149322922796123, 0.0, 9.809989, 0.0, 149322918714423, 0.0, 0.0, 0.0
427, 149322932796123, 0.0, 9.809989, 0.0, 149322928714423, 0.0, 0.0, 0.0
428, 149322942796123, 0.0, 9.809989, 0.0, 149322938714423, 0.0, 0.0, 0.0
429, 149322952796123, 0.0, 9.809989, 0.0, 149322948714423, 0.0, 0.0, 0.0
430, 149322962796123, 0.0, 9.809989, 0.0, 149322958714423, 0.0, 0.0, 0.0
431, 149322972796123, 0.0, 9.809989, 0.0, 149322968714423, 0.0, 0.0, 0.0
432, 149322982796123, 0.0, 9.809989, 0.0, 149322978714423, 0.0, 0.0, 0.0
433, 149322992796123, 0.0, 9.809989, 0.0, 149322988714423, 0.0, 0.0, 0.0
434, 149323002796123, 0.0, 9.809989, 0.0, 149322998714423, 0.0, 0.0, 0.0
435, 149323012796123, 0.0, 9.809989, 0.0, 149323008714423, 0.0, 0.0, 0.0
436, 149323022796123, 0.0, 9.809989, 0.0, 149323018714423, 0.0, 0.0, 0.0
437, 149323032796123, 0.0, 9.809989, 0.0, 149323028714423, 0.0, 0.0, 0.0
438, 149323042796123, 0.0, 9.809989, 0.0, 149323038714423, 0.0, 0.0, 0.0
439, 149323052796123, 0.0, 9.809989, 0.0, 149323048714423, 0.0, 0.0, 0.0
440, 149323062796123, 0.0, 9.809989, 0.0, 149323058714423, 0.0, 0.0, 0.0
441, 149323072796123, 0.0, 9.809989, 0.0, 149323068714423, 0.0, 0.0, 0.0
442, 149323082796123, 0.0, 9.809989, 0.0, 149323078714423, 0.0, 0.0, 0.0
443, 149323092796123, 0.0, 9.809989, 0.0, 149323088714423, 0.0, 0.0, 0.0
444, 149323102796123, 0.0, 9.809989, 0.0, 149323098714423, 0.0, 0.0, 0.0
445, 149323112796123, 0.0, 9.809989, 0.0, 149323108714423, 0.0, 0.0, 0.0
446, 149323122796123, 0.0, 9.809989, 0.0, 149323118714423, 0.0, 0.0, 0.0
447, 149323132796123, 0.0, 9.809989, 0.0, 149323128714423, 0.0, 0.0, 0.0
448, 149323142796123, 0.0, 9.809989, 0.0, 149323138714423, 0.0, 0.0, 0.0
449, 149323152796123, 0.0, 9.809989, 0.0, 149323148714423, 0.0, 0.0, 0.0
450, 149323162796123, 0.0, 9.809989, 0.0, 149323158714423, 0.0, 0.0, 0.0
451, 149323172796123, 0.0, 9.809989, 0.0, 149323168714423, 0.0, 0.0, 0.0
452, 149323182796123, 0.0, 9.809989, 0.0, 149323178714423, 0.0, 0.0, 0.0
453, 149323192796123, 0.0, 9.809989, 0.0, 149323188714423, 0.0, 0.0, 0.0
454, 149323202796123, 0.0, 9.809989, 0.0, 149323198714423, 0.0, 0.0, 0.0
455, 149323212796123, 0.0, 9.809989, 0.0, 149323208714423, 0.0, 0.0, 0.0
456, 149323222796123, 0.0, 9.809989, 0.0, 149323218714423, 0.0, 0.0, 0.0
457, 149323232796123, 0.0, 9.809989, 0.0, 149323228714423, 0.0, 0.0, 0.0
458, 149323242796123, 0.0, 9.809989, 0.0, 149323238714423, 0.0, 0.0, 0.0
459, 149323252796123, 0.0, 9.809989, 0.0, 149323248714423, 0.0, 0.0, 0.0
460, 149323262796123, 0.0, 9.809989, 0.0, 149323258714423, 0.0, 0.0, 0.0
461, 149323272796123, 0.0, 9.809989, 0.0, 149323268714423, 0.0, 0.0, 0.0
462, 149323282796123, 0.0, 9.809989, 0.0, 149323278714423, 0.0, 0.0, 0.0
463, 149323292796123, 0.0, 9.809989, 0.0, 149323288714423, 0.0, 0.0, 0.0
464, 149323302796123, 0.0, 9.809989, 0.0, 149323298714423, 0.0, 0.0, 0.0
465, 149323312796123, 0.0, 9.809989, 0.0, 149323308714423, 0.0, 0.0, 0.0
466, 149323322796123, 0.0, 9.809989, 0.0, 149323318714423, 0.0, 0.0, 0.0
467, 149323332796123, 0.0, 9.809989, 0.0, 149323328714423, 0.0, 0.0, 0.0
468, 149323342796123, 0.0, 9.809989, 0.0, 149323338714423, 0.0, 0.0, 0.0
469, 149323352796123, 0.0, 9.809989, 0.0, 149323348714423, 0.0, 0.0, 0.0
470, 149323362796123, 0.0, 9.809989, 0.0, 149323358714423, 0.0, 0.0, 0.0
471, 149323372796123, 0.0, 9.809989, 0.0, 149323368714423, 0.0, 0.0, 0.0
472, 149323382796123, 0.0, 9.809989, 0.0, 149323378714423, 0.0, 0.0, 0.0
473, 149323392796123, 0.0, 9.809989, 0.0, 149323388714423, 0.0, 0.0, 0.0
474, 149323402796123, 0.0, 9.809989, 0.0, 149323398714423, 0.0, 0.0, 0.0
475, 149323412796123, 0.0, 9.809989, 0.0, 149323408714423, 0.0, 0.0, 0.0
476, 149323422796123, 0.0, 9.809989, 0.0, 149323418714423, 0.0, 0.0, 0.0
477, 149323432796123, 0.0, 9.809989, 0.0, 149323428714423, 0.0, 0.0, 0.0
478, 149323442796123, 0.0, 9.809989, 0.0, 149323438714423, 0.0, 0.0, 0.0
479, 149323452796123, 0.0, 9.809989, 0.0, 149323448714423, 0.0, 0.0, 0.0
480, 149323462796123, 0.0, 9.809989, 0.0, 149323458714423, 0.0, 0.0, 0.0
481, 149323472796123, 0.0, 9.809989, 0.0, 149323468714423, 0.0, 0.0, 0.0
482, 149323482796123, 0.0, 9.809989, 0.0, 149323478714423, 0.0, 0.0, 0.0
483, 149323492796123, 0.0, 9.809989, 0.0, 149323488714423, 0.0, 0.0, 0.0
484, 149323502796123, 0.0, 9.809989, 0.0, 149323498714423, 0.0, 0.0, 0.0
485, 149323512796123, 0.0, 9.809989, 0.0, 149323508714423, 0.0, 0.0, 0.0
486, 149323522796123, 0.0, 9.809989, 0.0, 149323518714423, 0.0, 0.0, 0.0
487, 149323532796123, 0.0, 9.809989, 0.0, 149323528714423, 0.0, 0.0, 0.0
488, 149323542796123, 0.0, 9.809989, 0.0, 149323538714423, 0.0, 0.0, 0.0
489, 149323552796123, 0.0, 9.809989, 0.0, 149323548714423, 0.0, 0.0, 0.0
490, 149323562796123, 0.0, 9.809989, 0.0, 149323558714423, 0.0, 0.0, 0.0
491, 149323572796123, 0.0, 9.809989, -0.017361112, 149323568714423, 0.22825001, 0.0, 0.0
492, 149323582796123, -5.5803574E-4, 9.809555, -0.093688, 149323578714423, 0.38737503, -0.091375, -6.2500004E-4
493, 149323592796123, -0.0031001987, 9.808719, -0.15938121, 149323588714423, 0.55862504, -0.366625, -0.008625001
494, 149323602796123, -0.009083582, 9.807106, -0.23834327, 149323598714423, 0.73462504, -0.817875, -0.027750002
495, 149323612796123, -0.020275299, 9.804254, -0.33488345, 149323608714423, 0.89625007, -1.35175, -0.052
496, 149323622796123, -0.03683036, 9.800037, -0.4404762, 149323618714423, 1.043625, -1.9288751, -0.07575
497, 149323632796123, -0.06076389, 9.793776, -0.5603919, 149323628714423, 1.1625, -2.4655, -0.09312501
498, 149323642796123, -0.09105283, 9.785715, -0.6838418, 149323638714423, 1.2626251, -2.9878752, -0.105625
499, 149323652796123, -0.12865824, 9.775454, -0.8124381, 149323648714423, 1.332, -3.4432502, -0.10825001
500, 149323662796123, -0.17302208, 9.763114, -0.94215035, 149323658714423, 1.373625, -3.8462503, -0.099125005
501, 149323672796123, -0.17302208, 9.763114, -0.94215035, 149323668714423, 1.391, -4.1903753, -0.08025
502, 149323682796123, -0.22243924, 9.749008, -1.0692585, 149323678714423, 1.391, -4.1903753, -0.08025
503, 149323692796123, -0.2719494, 9.733601, -1.1911893, 149323688714423, 1.2906251, -4.8095, 0.124125004
504, 149323702796123, -0.327753, 9.716177, -1.3131511, 149323698714423, 1.352375, -4.542375, 0.017375002
505, 149323712796123, -0.38659477, 9.6977625, -1.4283855, 149323708714423, 1.3448751, -4.3707504, 0.044625003
506, 149323722796123, -0.44131327, 9.678262, -1.5402406, 149323718714423, 1.2891251, -4.27475, 0.18512501
507, 149323732796123, -0.48586312, 9.656251, -1.6604353, 149323728714423, 1.1818751, -4.20275, 0.47100002
508, 149323742796123, -0.5265377, 9.637308, -1.7553635, 149323738714423, 1.2505001, -4.193375, 0.144875
509, 149323752796123, -0.61430436, 9.612351, -1.8605222, 149323748714423, 1.26625, -4.07275, -0.30625
510, 149323762796123, -0.74429566, 9.584512, -1.9543031, 149323758714423, 1.2145001, -3.9007502, -0.79450005
511, 149323772796123, -0.9281375, 9.55134, -2.0362725, 149323768714423, 1.09, -3.715125, -1.3315
512, 149323782796123, -1.1005085, 9.517858, -2.105965, 149323778714423, 1.09, -3.715125, -1.3315
513, 149323792796123, -1.2433656, 9.479632, -2.1969247, 149323788714423, 1.4976251, -3.6943753, -0.33962503
514, 149323802796123, -1.3390688, 9.44057, -2.3061757, 149323798714423, 1.7726251, -3.4307501, 0.0195
515, 149323812796123, -1.4082652, 9.389975, -2.466022, 149323808714423, 2.1315, -2.9785001, 0.30725002
516, 149323822796123, -1.4704552, 9.342014, -2.607825, 149323818714423, 1.8601251, -3.323625, 0.092375
517, 149323832796123, -1.5718937, 9.290768, -2.7288568, 149323828714423, 1.8601251, -3.323625, 0.092375
518, 149323842796123, -1.6973587, 9.239243, -2.826947, 149323838714423, 1.6838751, -3.4466252, -0.17187501
519, 149323852796123, -1.8327754, 9.187098, -2.9110866, 149323848714423, 1.5475, -3.3841252, -0.32937503
520, 149323862796123, -1.9469557, 9.141958, -2.9782677, 149323858714423, 1.383875, -3.1906252, -0.26937503
521, 149323872796123, -2.013889, 9.111236, -3.027561, 149323868714423, 1.21375, -2.89275, -0.015375
522, 149323882796123, -2.013889, 9.111236, -3.027561, 149323878714423, 1.093875, -2.5355, 0.29700002
523, 149323892796123, -2.0203373, 9.070592, -3.1430743, 149323888714423, 1.093875, -2.5355, 0.29700002
524, 149323902796123, -1.9493738, 9.058346, -3.2221913, 149323898714423, 1.125, -1.6660001, 1.086125
525, 149323912796123, -1.8228858, 9.045387, -3.3308225, 149323908714423, 1.276625, -1.2587501, 1.510375
526, 149323922796123, -1.6317586, 9.0258875, -3.479508, 149323918714423, 1.511625, -0.850125, 1.9728751
527, 149323932796123, -1.6317586, 9.0258875, -3.479508, 149323928714423, 1.8035, -0.45875, 2.4425
528, 149323942796123, -1.3985306, 8.995815, -3.654545, 149323938714423, 2.10575, -0.19437501, 2.8626251
529, 149323952796123, -0.79867315, 8.875031, -4.102679, 149323948714423, 2.3930001, -0.06837501, 3.223
530, 149323962796123, -0.79867315, 8.875031, -4.102679, 149323958714423, 2.6008751, -0.023000002, 3.4826252
531, 149323972796123, -0.48750624, 8.786645, -4.3351007, 149323968714423, 2.56725, -0.051500004, 3.4682503
532, 149323982796123, 0.07762897, 8.580265, -4.7549295, 149323978714423, 2.3635, -0.21812502, 3.29675
533, 149323992796123, 0.2937748, 8.483167, -4.9178762, 149323988714423, 2.0961251, -0.50475, 3.0947502
534, 149324002796123, 0.2937748, 8.483167, -4.9178762, 149323998714423, 1.7398751, -0.92037505, 2.847625
535, 149324012796123, 0.4731833, 8.392176, -5.058036, 149324008714423, 1.391875, -1.315, 2.6298752
536, 149324022796123, 0.6434772, 8.295325, -5.197111, 149324018714423, 1.589125, -1.1493751, 2.713375
537, 149324032796123, 0.8106709, 8.185982, -5.3449283, 149324028714423, 1.6365001, -1.2083751, 2.658375
538, 149324042796123, 0.9601625, 8.067089, -5.498729, 149324038714423, 1.566125, -1.43525, 2.48125
539, 149324052796123, 1.0651352, 7.95418, -5.64202, 149324048714423, 1.396625, -1.7927501, 2.219125
540, 149324062796123, 1.1180866, 7.8443394, -5.7837925, 149324058714423, 1.396625, -1.7927501, 2.219125
541, 149324072796123, 1.155134, 7.7507753, -5.901445, 149324068714423, 1.347125, -1.80525, 2.156625
542, 149324082796123, 1.2459388, 7.630643, -6.0379467, 149324078714423, 1.347125, -1.80525, 2.156625
543, 149324092796123, 1.2459388, 7.630643, -6.0379467, 149324088714423, 1.5246251, -1.2260001, 2.4262502
544, 149324102796123, 1.5270648, 7.3761473, -6.2846293, 149324098714423, 1.5246251, -1.2260001, 2.4262502
545, 149324112796123, 1.7094805, 7.241816, -6.3929505, 149324108714423, 1.424625, -0.45937502, 2.5863752
546, 149324122796123, 1.7094805, 7.241816, -6.3929505, 149324118714423, 1.12625, -0.16287501, 2.5291252
547, 149324132796123, 1.7094805, 7.241816, -6.3929505, 149324128714423, 1.12625, -0.16287501, 2.5291252
548, 149324142796123, 2.3161273, 6.9848094, -6.4872274, 149324138714423, 0.36887503, 0.67450005, 2.420125
549, 149324152796123, 2.3161273, 6.9848094, -6.4872274, 149324148714423, -0.074625, 1.07525, 2.3477502
550, 149324162796123, 2.3161273, 6.9848094, -6.4872274, 149324158714423, -0.074625, 1.07525, 2.3477502
551, 149324172796123, 2.7546194, 6.8013396, -6.510758, 149324168714423, 0.776125, 0.089625, 2.3387501
552, 149324182796123, 3.0361795, 6.5479913, -6.6439114, 149324178714423, 1.1042501, -0.43562502, 2.25
553, 149324192796123, 3.2062874, 6.443701, -6.665923, 149324188714423, 0.71175003, 0.064500004, 2.33025
554, 149324202796123, 3.3977246, 6.371776, -6.6401916, 149324198714423, 0.20875001, 0.45825002, 2.35275
555, 149324212796123, 3.6009426, 6.335814, -6.5671196, 149324208714423, -0.38825002, 0.76575005, 2.3307502
556, 149324222796123, 3.794457, 6.3280015, -6.464844, 149324218714423, -0.93200004, 0.883875, 2.2557502
557, 149324232796123, 3.9570005, 6.338573, -6.356151, 149324228714423, -1.3025, 0.73637503, 2.1412501
558, 149324242796123, 4.090619, 6.3599954, -6.249287, 149324238714423, -1.52725, 0.38487503, 2.0010002
559, 149324252796123, 4.1952505, 6.380984, -6.1578627, 149324248714423, -1.5657501, -0.030125001, 1.8543751
560, 149324262796123, 4.279142, 6.400329, -6.079551, 149324258714423, -1.4648751, -0.29087502, 1.6883751
561, 149324272796123, 4.3337674, 6.414032, -6.026166, 149324268714423, -1.32825, -0.5165, 1.5131251
562, 149324282796123, 4.3337674, 6.414032, -6.026166, 149324278714423, -1.1693751, -0.85812503, 1.4021251
563, 149324292796123, 4.358414, 6.4199224, -6.0020776, 149324288714423, -0.99187505, -1.31025, 1.343
564, 149324302796123, 4.3492994, 6.41521, -6.0137343, 149324298714423, -0.76187503, -1.8130001, 1.3005
565, 149324312796123, 4.305742, 6.396609, -6.0646706, 149324308714423, -0.4065, -2.251625, 1.1905
566, 149324322796123, 4.2211685, 6.3572984, -6.164621, 149324318714423, 0.12437501, -2.5795002, 0.9521251
567, 149324332796123, 4.102307, 6.2949224, -6.30723, 149324328714423, 0.6715, -2.7113752, 0.7225
568, 149324342796123, 3.9672, 6.212519, -6.4731836, 149324338714423, 1.0165, -2.722125, 0.56125003
569, 149324352796123, 3.8122213, 6.117808, -6.6539564, 149324348714423, 1.072375, -2.652625, 0.44937503
570, 149324362796123, 3.6499567, 6.026476, -6.8260794, 149324358714423, 0.84462506, -2.424375, 0.42487502
571, 149324372796123, 3.5059216, 5.9599767, -6.958675, 149324368714423, 0.38012502, -2.0691252, 0.48600003
572, 149324382796123, 3.3999877, 5.930215, -7.0362105, 149324378714423, 0.38012502, -2.0691252, 0.48600003
573, 149324392796123, 3.3473153, 5.929874, -7.061725, 149324388714423, -0.128, -1.562875, 0.607625
574, 149324402796123, 3.3521826, 5.943391, -7.0480843, 149324398714423, -0.47475, -0.941375, 0.7455
575, 149324412796123, 3.416977, 5.9578996, -7.0045576, 149324408714423, -0.6315, 0.43275002, 0.995625
576, 149324422796123, 3.5566719, 5.9645033, -6.9290056, 149324418714423, -0.6315, 0.43275002, 0.995625
577, 149324432796123, 3.7416916, 5.962705, -6.8324347, 149324428714423, -0.58650005, 1.2413751, 1.080625
578, 149324442796123, 3.9445376, 5.94925, -6.72926, 149324438714423, -0.24475001, 2.505875, 0.97400004
579, 149324452796123, 3.9445376, 5.94925, -6.72926, 149324448714423, -0.24475001, 2.505875, 0.97400004
580, 149324462796123, 4.2071557, 5.9131017, -6.6008496, 149324458714423, 0.16062501, 3.004625, 0.7965
581, 149324472796123, 4.492188, 5.84744, -6.4702077, 149324468714423, 0.69875, 3.3190002, 0.5625
582, 149324482796123, 4.760727, 5.780692, -6.336806, 149324478714423, 0.26862502, 3.048875, 0.75187504
583, 149324492796123, 5.0197177, 5.717851, -6.1922746, 149324488714423, 0.53137505, 3.3785002, 0.582125
584, 149324502796123, 5.260913, 5.655258, -6.0478673, 149324498714423, 0.72150004, 3.6957502, 0.37387502
585, 149324512796123, 5.5207095, 5.590495, -5.874008, 149324508714423, 0.882125, 4.0558753, 0.10300001
586, 149324522796123, 5.7641993, 5.5376368, -5.6872525, 149324518714423, 1.020125, 4.373875, -0.19600001
587, 149324532796123, 6.028336, 5.492498, -5.452319, 149324528714423, 1.020125, 4.373875, -0.19600001
588, 149324542796123, 6.243118, 5.467479, -5.231306, 149324538714423, 1.224375, 4.578125, -0.58825004
589, 149324552796123, 6.4416857, 5.447886, -5.006139, 149324548714423, 1.477375, 4.547375, -0.9907501
590, 149324562796123, 6.6273875, 5.4224334, -4.7865825, 149324558714423, 1.145625, 4.3045, -0.37225002
591, 149324572796123, 6.8236923, 5.382689, -4.5497274, 149324568714423, 1.145625, 4.3045, -0.37225002
592, 149324582796123, 6.8236923, 5.382689, -4.5497274, 149324578714423, 1.081125, 3.8681252, -0.086125
593, 149324592796123, 7.213201, 5.318546, -3.9898627, 149324588714423, 1.118625, 4.3205004, -0.30100003
594, 149324602796123, 7.213201, 5.318546, -3.9898627, 149324598714423, 1.1255001, 4.767375, -0.34550002
595, 149324612796123, 7.4022512, 5.295852, -3.6601565, 149324608714423, 1.099125, 5.12225, -0.23187502
596, 149324622796123, 7.5940604, 5.26702, -3.2901168, 149324618714423, 1.00825, 5.4292502, -0.045375
597, 149324632796123, 7.769067, 5.2329803, -2.9144037, 149324628714423, 0.89475006, 5.6666255, 0.17975001
598, 149324642796123, 7.952102, 5.182509, -2.4782367, 149324638714423, 0.72025, 5.8631253, 0.46400002
599, 149324652796123, 8.109406, 5.12438, -2.0528896, 149324648714423, 0.469875, 6.00425, 0.70762503
600, 149324662796123, 8.262154, 5.0505958, -1.5698786, 149324658714423, 0.128875, 6.129125, 0.9455
601, 149324672796123, 8.396671, 4.963015, -1.0489832, 149324668714423, -0.27625, 6.240125, 1.161
602, 149324682796123, 8.519811, 4.8459516, -0.4072111, 149324678714423, -0.79625005, 6.27575, 1.2915001
603, 149324692796123, 8.599361, 4.7097907, 0.32409477, 149324688714423, -0.79625005, 6.27575, 1.2915001
604, 149324702796123, 8.6144905, 4.599579, 0.93297374, 149324698714423, -1.394875, 6.1666255, 1.22525
605, 149324712796123, 8.582745, 4.494885, 1.5391246, 149324708714423, -1.8936251, 6.0028753, 1.036375
606, 149324722796123, 8.499536, 4.390253, 2.1724331, 149324718714423, -2.26675, 5.7283754, 0.75875
607, 149324732796123, 8.392548, 4.30692, 2.6928635, 149324728714423, -2.317625, 5.2400002, 0.455875
608, 149324742796123, 8.27102, 4.2417536, 3.135882, 149324738714423, -2.02075, 4.68475, 0.24300002
609, 149324752796123, 8.27102, 4.2417536, 3.135882, 149324748714423, -1.4731251, 4.1011252, 0.093875006
610, 149324762796123, 8.11108, 4.1945996, 3.5849147, 149324758714423, -0.49375004, 3.3326252, -0.00625
611, 149324772796123, 7.997086, 4.1942897, 3.8328376, 149324768714423, 0.41412503, 2.7422502, -0.01675
612, 149324782796123, 7.899678, 4.229198, 3.9930868, 149324778714423, 1.31075, 2.26425, -0.005625
613, 149324792796123, 7.8168097, 4.296503, 4.0833335, 149324788714423, 2.0926251, 1.9902501, -0.005625
614, 149324802796123, 7.73143, 4.3664126, 4.170821, 149324798714423, 1.35675, 2.12325, 0.080375
615, 149324812796123, 7.648996, 4.3955235, 4.2904577, 149324808714423, 0.7005, 2.1398752, 0.30762503
616, 149324822796123, 7.5803266, 4.3795886, 4.4264946, 149324818714423, 0.16962501, 2.0700002, 0.62700003
617, 149324832796123, 7.5220428, 4.3061137, 4.5948353, 149324828714423, -0.28512502, 1.9166251, 1.0830001
618, 149324842796123, 7.491475, 4.1699224, 4.767175, 149324838714423, -0.60575, 1.697875, 1.6315001
619, 149324852796123, 7.458737, 4.0384426, 4.9289436, 149324848714423, -0.35812503, 1.8185, 1.0568751
620, 149324862796123, 7.3934774, 3.966084, 5.0835814, 149324858714423, -0.108375005, 1.886, 0.474375
621, 149324872796123, 7.2968135, 3.951513, 5.2324224, 149324868714423, 0.133, 2.064125, -0.068875
622, 149324882796123, 7.1742315, 3.9853363, 5.37438, 149324878714423, 0.35337502, 2.3156252, -0.54825
623, 149324892796123, 7.021485, 4.024523, 5.544178, 149324888714423, 0.12750001, 2.099375, -0.06825
624, 149324902796123, 6.916946, 4.0223527, 5.6755958, 149324898714423, -0.009125001, 2.08075, 0.22062501
625, 149324912796123, 6.7973094, 3.9893045, 5.841084, 149324908714423, -0.009125001, 2.08075, 0.22062501
626, 149324922796123, 6.686601, 3.9587367, 5.9878163, 149324918714423, -0.142375, 2.20575, 0.5065
627, 149324932796123, 6.577071, 3.9584575, 6.108104, 149324928714423, -0.009000001, 1.9891251, 0.23675
628, 149324942796123, 6.4599457, 4.0002484, 6.2050786, 149324938714423, 0.17212501, 1.707375, -0.096875004
629, 149324952796123, 6.3437505, 4.0942154, 6.2634244, 149324948714423, 0.42025003, 1.33875, -0.52525
630, 149324962796123, 6.2350264, 4.2222533, 6.287544, 149324958714423, 0.71675, 1.0255, -0.975875
631, 149324972796123, 6.1144285, 4.388269, 6.292287, 149324968714423, 1.012125, 0.90075004, -1.3570001
632, 149324982796123, 5.959481, 4.611049, 6.2816224, 149324978714423, 1.3260001, 0.90275, -1.7162501
633, 149324992796123, 5.959481, 4.611049, 6.2816224, 149324988714423, 1.6652501, 1.014875, -2.0596251
634, 149325002796123, 5.5855656, 5.121993, 6.229167, 149324998714423, 1.9990001, 1.233875, -2.3416252
635, 149325012796123, 5.5855656, 5.121993, 6.229167, 149325008714423, 1.7572501, 1.0735, -2.092375
636, 149325022796123, 5.4040804, 5.3502607, 6.197328, 149325018714423, 1.588, 1.0645001, -1.753375
637, 149325032796123, 5.247179, 5.5318704, 6.1726503, 149325028714423, 1.510375, 1.196375, -1.3950001
638, 149325042796123, 5.091177, 5.6946306, 6.155258, 149325038714423, 1.479125, 1.419875, -0.95762503
639, 149325052796123, 4.964379, 5.813833, 6.1473837, 149325048714423, 1.4686251, 1.6140001, -0.50437504
640, 149325062796123, 4.833892, 5.925379, 6.1449037, 149325058714423, 1.4560001, 1.7943751, 0.132375
641, 149325072796123, 4.7367935, 6.0001245, 6.147973, 149325068714423, 1.444625, 1.93175, 0.85887504
642, 149325082796123, 4.686229, 6.0327697, 6.1547623, 149325078714423, 1.41075, 1.9832501, 1.5621251
643, 149325092796123, 4.633185, 6.0675845, 6.1607146, 149325088714423, 1.39625, 1.8720001, 0.94525003
644, 149325102796123, 4.5849457, 6.1009736, 6.163815, 149325098714423, 1.3973751, 1.9570001, 1.3275001
645, 149325112796123, 4.55878, 6.1143665, 6.1699533, 149325108714423, 1.2715001, 1.8787501, 1.7172501
646, 149325122796123, 4.5656314, 6.0988345, 6.180215, 149325118714423, 1.034875, 1.6608751, 2.1025002
647, 149325132796123, 4.606492, 6.0519905, 6.195933, 149325128714423, 0.70412505, 1.3906251, 2.3976252
648, 149325142796123, 4.6858883, 5.9602246, 6.2252917, 149325138714423, 0.70412505, 1.3906251, 2.3976252
649, 149325152796123, 4.782831, 5.845114, 6.260634, 149325148714423, -0.206125, 0.629875, 2.6963751
650, 149325162796123, 4.8950276, 5.7059774, 6.3021455, 149325158714423, -0.206125, 0.629875, 2.6963751
651, 149325172796123, 4.9712925, 5.6148624, 6.324219, 149325168714423, 0.40962502, 1.0862501, 2.64625
652, 149325182796123, 5.028088, 5.5676155, 6.321057, 149325178714423, 1.0725001, 1.4008751, 2.6295002
653, 149325192796123, 5.0799236, 5.521702, 6.31991, 149325188714423, 1.6128751, 1.4587501, 2.6465
654, 149325202796123, 5.1290617, 5.4378104, 6.3528957, 149325198714423, 1.1395, 1.5185001, 2.6015
655, 149325212796123, 5.1728053, 5.322421, 6.414838, 149325208714423, 0.54425, 1.4867501, 2.543625
656, 149325222796123, 5.211651, 5.2079926, 6.477028, 149325218714423, -0.079625, 1.3881251, 2.487375
657, 149325232796123, 5.240204, 5.14016, 6.508092, 149325228714423, 0.58012503, 1.4887501, 2.506875
658, 149325242796123, 5.26268, 5.1161337, 6.508898, 149325238714423, 1.2177501, 1.5312501, 2.449875
659, 149325252796123, 5.2795453, 5.148655, 6.4694324, 149325248714423, 1.8706251, 1.5031251, 2.2857502
660, 149325262796123, 5.289063, 5.23019, 6.3958955, 149325258714423, 2.5356252, 1.3802501, 1.978
661, 149325272796123, 5.292969, 5.3755274, 6.2709265, 149325268714423, 3.09275, 1.204125, 1.6173751
662, 149325282796123, 5.292969, 5.3755274, 6.2709265, 149325278714423, 3.6160002, 0.98550004, 1.1267501
663, 149325292796123, 5.2814364, 5.7883186, 5.902344, 149325288714423, 3.9593751, 0.71525, 0.65562505
664, 149325302796123, 5.2821803, 6.0298553, 5.6547313, 149325298714423, 4.155125, 0.27100003, 0.20912501
665, 149325312796123, 5.2953563, 6.292969, 5.3473153, 149325308714423, 4.199625, -0.27575, -0.155125
666, 149325322796123, 5.3144846, 6.5496655, 5.0093937, 149325318714423, 4.1105003, -0.93262506, -0.50837505
667, 149325332796123, 5.3144846, 6.5496655, 5.0093937, 149325328714423, 3.984625, -1.4262501, -0.86587507
668, 149325342796123, 5.318298, 6.8154454, 4.636967, 149325338714423, 3.8827503, -1.6222501, -1.264875
669, 149325352796123, 5.289497, 7.0846977, 4.2502174, 149325348714423, 3.7403753, -1.7405001, -1.6007501
670, 149325362796123, 5.244234, 7.3124385, 3.9066842, 149325358714423, 3.5456252, -1.9362501, -1.7682501
671, 149325372796123, 5.183625, 7.5461006, 3.5245228, 149325368714423, 3.288, -2.24425, -1.8415
672, 149325382796123, 5.1272635, 7.7355227, 3.1795018, 149325378714423, 3.0473752, -2.595, -1.8302501
673, 149325392796123, 5.0649495, 7.930401, 2.7733138, 149325388714423, 2.7942502, -3.0490003, -1.76075
674, 149325402796123, 5.0050535, 8.104942, 2.3442461, 149325398714423, 2.5908751, -3.5321252, -1.6575
675, 149325412796123, 4.9541483, 8.239708, 1.9493119, 149325408714423, 2.4557502, -3.9661252, -1.5455
676, 149325422796123, 4.8961744, 8.366382, 1.5058595, 149325418714423, 2.36675, -4.255875, -1.4628751
677, 149325432796123, 4.824994, 8.472812, 1.0804812, 149325428714423, 2.34225, -4.235875, -1.4736251
678, 149325442796123, 4.728888, 8.571398, 0.63640875, 149325438714423, 2.3215, -4.2395, -1.43525
679, 149325452796123, 4.626519, 8.646795, 0.25359625, 149325448714423, 2.2743752, -4.024125, -1.4345001
680, 149325462796123, 4.5045886, 8.713573, -0.13671876, 149325458714423, 2.2913752, -4.1782503, -1.4030001
681, 149325472796123, 4.353888, 8.772849, -0.56296504, 149325468714423, 2.2913752, -4.1782503, -1.4030001
682, 149325482796123, 4.220238, 8.809927, -0.90029764, 149325478714423, 2.21825, -4.01625, -1.3395001
683, 149325492796123, 4.091425, 8.832311, -1.219184, 149325488714423, 2.0687501, -3.6928751, -1.1862501
684, 149325502796123, 3.9888086, 8.834202, -1.5108508, 149325498714423, 1.8183751, -3.2487502, -0.850875
685, 149325512796123, 3.946863, 8.811664, -1.7357702, 149325508714423, 1.468, -2.6750002, -0.321
686, 149325522796123, 3.9772449, 8.766152, -1.8900051, 149325518714423, 1.0656251, -2.0373752, 0.34050003
687, 149325532796123, 4.0814424, 8.694941, -1.9939858, 149325528714423, 0.66450006, -1.5025, 1.02975
688, 149325542796123, 4.0814424, 8.694941, -1.9939858, 149325538714423, 0.28325, -1.1855, 1.7261251
689, 149325552796123, 4.4421506, 8.495102, -2.0824964, 149325548714423, -0.060125005, -1.0742501, 2.3912501
690, 149325562796123, 4.4421506, 8.495102, -2.0824964, 149325558714423, -0.311125, -1.02225, 2.7325
691, 149325572796123, 4.664342, 8.371807, -2.0958273, 149325568714423, -0.42275003, -0.98187506, 2.7545002
692, 149325582796123, 4.8511906, 8.261626, -2.108941, 149325578714423, -0.346125, -1.014125, 2.60925
693, 149325592796123, 5.032645, 8.143757, -2.1419272, 149325588714423, -0.10937501, -1.115375, 2.3047502
694, 149325602796123, 5.1901665, 8.027096, -2.2054813, 149325598714423, 0.03925, -1.1780001, 1.9341251
695, 149325612796123, 5.3480597, 7.9018793, -2.279204, 149325608714423, 0.112500004, -1.097875, 2.2585
696, 149325622796123, 5.497489, 7.778336, -2.3475633, 149325618714423, -0.024, -1.1013751, 2.0317502
697, 149325632796123, 5.624194, 7.6726193, -2.3949034, 149325628714423, -0.176125, -0.86187506, 1.916375
698, 149325642796123, 5.7499385, 7.573196, -2.4126675, 149325638714423, -0.33925003, -0.438125, 1.881625
699, 149325652796123, 5.902716, 7.463883, -2.3842077, 149325648714423, -0.58487505, 0.15587501, 1.8771251
700, 149325662796123, 6.0583463, 7.365173, -2.2993243, 149325658714423, -0.90375006, 0.74437505, 1.8752501
701, 149325672796123, 6.382813, 7.183811, -1.9719744, 149325668714423, -1.11475, 1.2393751, 1.8270001
702, 149325682796123, 6.382813, 7.183811, -1.9719744, 149325678714423, -1.1308751, 1.7812501, 1.6558751
703, 149325692796123, 6.5271583, 7.105562, -1.7729416, 149325688714423, -0.95825005, 2.1855001, 1.432625
704, 149325702796123, 6.6674113, 7.0286155, -1.5428759, 149325698714423, -0.5995, 2.577625, 1.1240001
705, 149325712796123, 6.77505, 6.9700212, -1.3243428, 149325708714423, -0.205125, 2.8470001, 0.70187503
706, 149325722796123, 6.847037, 6.9396086, -1.093595, 149325718714423, -0.205125, 2.8470001, 0.70187503
707, 149325732796123, 6.8595304, 6.9528155, -0.9171938, 149325728714423, 0.42400002, 3.077125, -0.56937504
708, 149325742796123, 6.819972, 7.012091, -0.7446057, 149325738714423, 0.738125, 3.0100002, -1.255375
709, 149325752796123, 6.7299423, 7.1114216, -0.60943705, 149325748714423, 0.738125, 3.0100002, -1.255375
710, 149325762796123, 6.59313, 7.246342, -0.5070995, 149325758714423, 1.082, 2.90175, -1.85475
711, 149325772796123, 6.365297, 7.4526296, -0.42134798, 149325768714423, 1.409625, 2.8695002, -2.394375
712, 149325782796123, 6.365297, 7.4526296, -0.42134798, 149325778714423, 1.7908751, 2.92775, -2.9888752
713, 149325792796123, 6.365297, 7.4526296, -0.42134798, 149325788714423, 1.7908751, 2.92775, -2.9888752
714, 149325802796123, 5.589193, 8.053386, -0.37422496, 149325798714423, 1.7908751, 2.92775, -2.9888752
715, 149325812796123, 5.589193, 8.053386, -0.37422496, 149325808714423, 2.2940001, 2.962125, -3.6146252
716, 149325822796123, 5.589193, 8.053386, -0.37422496, 149325818714423, 2.2940001, 2.962125, -3.6146252
717, 149325832796123, 4.7364836, 8.575614, -0.5104167, 149325828714423, 2.0140002, 2.306375, -3.4720001
718, 149325842796123, 4.401848, 8.747458, -0.58460444, 149325838714423, 1.7661251, 1.8066251, -3.53975
719, 149325852796123, 4.401848, 8.747458, -0.58460444, 149325848714423, 1.4112501, 1.352625, -3.6388752
720, 149325862796123, 4.401848, 8.747458, -0.58460444, 149325858714423, 1.4112501, 1.352625, -3.6388752
721, 149325872796123, 3.7248886, 9.050968, -0.66421753, 149325868714423, 0.48112503, 1.1272501, -3.7860003
722, 149325882796123, 3.3668156, 9.191686, -0.6429502, 149325878714423, -0.041375004, 1.112375, -3.8792503
723, 149325892796123, 3.3668156, 9.191686, -0.6429502, 149325888714423, -0.041375004, 1.112375, -3.8792503
724, 149325902796123, 2.5562997, 9.458582, -0.48642117, 149325898714423, -0.041375004, 1.112375, -3.8792503
725, 149325912796123, 2.167008, 9.559493, -0.3950273, 149325908714423, -0.96025, 0.194625, -4.29425
726, 149325922796123, 2.167008, 9.559493, -0.3950273, 149325918714423, -0.96025, 0.194625, -4.29425
727, 149325932796123, 2.167008, 9.559493, -0.3950273, 149325928714423, -0.96025, 0.194625, -4.29425
728, 149325942796123, 0.74947304, 9.780848, -0.09818329, 149325938714423, -0.95425004, -0.88875, -4.695875
729, 149325952796123, 0.74947304, 9.780848, -0.09818329, 149325948714423, -0.95425004, -0.88875, -4.695875
730, 149325962796123, 0.74947304, 9.780848, -0.09818329, 149325958714423, -0.95425004, -0.88875, -4.695875
731, 149325972796123, -0.5995784, 9.790148, 0.171844, 149325968714423, -0.95425004, -0.88875, -4.695875
732, 149325982796123, -0.5995784, 9.790148, 0.171844, 149325978714423, -0.62750006, -0.059750002, -3.4596252
733, 149325992796123, -0.5995784, 9.790148, 0.171844, 149325988714423, -0.62750006, -0.059750002, -3.4596252
734, 149326002796123, -1.5856895, 9.674945, 0.34275797, 149325998714423, -0.62750006, -0.059750002, -3.4596252
735, 149326012796123, -1.8677456, 9.621715, 0.41303945, 149326008714423, -0.68075, -0.102625005, -3.0672503
736, 149326022796123, -1.8677456, 9.621715, 0.41303945, 149326018714423, -0.71400005, -0.031875003, -2.64925
737, 149326032796123, -1.8677456, 9.621715, 0.41303945, 149326028714423, -0.71400005, -0.031875003, -2.64925
738, 149326042796123, -2.2904267, 9.522756, 0.5542535, 149326038714423, -0.701375, 0.294625, -1.368625
739, 149326052796123, -2.406963, 9.489956, 0.61898565, 149326048714423, -0.664125, 0.46337503, -0.765375
740, 149326062796123, -2.406963, 9.489956, 0.61898565, 149326058714423, -0.664125, 0.46337503, -0.765375
741, 149326072796123, -2.5200584, 9.454304, 0.70836437, 149326068714423, -0.53875005, 0.66325, -0.461625
742, 149326082796123, -2.5635543, 9.439795, 0.74482274, 149326078714423, -0.53987503, 0.62350005, -0.321375
743, 149326092796123, -2.5635543, 9.439795, 0.74482274, 149326088714423, -0.53987503, 0.62350005, -0.321375
744, 149326102796123, -2.5708396, 9.4347105, 0.78298616, 149326098714423, -0.53987503, 0.62350005, -0.321375
745, 149326112796123, -2.5022323, 9.455389, 0.7554564, 149326108714423, -0.09200001, 0.7095, 0.45062503
746, 149326122796123, -2.5022323, 9.455389, 0.7554564, 149326118714423, 0.216, 0.71312505, 0.98975
747, 149326132796123, -2.5022323, 9.455389, 0.7554564, 149326128714423, 0.216, 0.71312505, 0.98975
748, 149326142796123, -1.9747955, 9.595456, 0.51305187, 149326138714423, 0.795, 0.60887504, 2.032
749, 149326152796123, -1.9747955, 9.595456, 0.51305187, 149326148714423, 1.08175, 0.47237504, 2.6445
750, 149326162796123, -1.9747955, 9.595456, 0.51305187, 149326158714423, 1.08175, 0.47237504, 2.6445
751, 149326172796123, -0.9917535, 9.759301, 0.093532994, 149326168714423, 1.5195, 0.18162501, 3.64
752, 149326182796123, -0.9917535, 9.759301, 0.093532994, 149326178714423, 1.6176251, 0.14775, 3.9452503
753, 149326192796123, -0.9917535, 9.759301, 0.093532994, 149326188714423, 1.6176251, 0.14775, 3.9452503
754, 149326202796123, 0.32676092, 9.800255, -0.29073662, 149326198714423, 1.6176251, 0.14775, 3.9452503
755, 149326212796123, 0.32676092, 9.800255, -0.29073662, 149326208714423, 0.607375, 0.295625, 4.51825
756, 149326222796123, 0.77089536, 9.77443, -0.3201265, 149326218714423, 0.027, 0.43087503, 4.4021254
757, 149326232796123, 0.77089536, 9.77443, -0.3201265, 149326228714423, 0.027, 0.43087503, 4.4021254
758, 149326242796123, 1.6531188, 9.6664505, -0.25086808, 149326238714423, -0.0465, 0.45575002, 4.376375
759, 149326252796123, 2.1134055, 9.576265, -0.25390625, 149326248714423, 0.240875, 0.42275003, 4.4063754
760, 149326262796123, 2.1134055, 9.576265, -0.25390625, 149326258714423, 0.240875, 0.42275003, 4.4063754
761, 149326272796123, 3.010913, 9.3329, -0.26013768, 149326268714423, 0.240875, 0.42275003, 4.4063754
762, 149326282796123, 3.4073353, 9.195499, -0.26311386, 149326278714423, -0.11462501, -0.44000003, 3.9235003
763, 149326292796123, 3.4073353, 9.195499, -0.26311386, 149326288714423, -0.11462501, -0.44000003, 3.9235003
764, 149326302796123, 4.046782, 8.932385, -0.26937625, 149326298714423, -0.11462501, -0.44000003, 3.9235003
765, 149326312796123, 4.046782, 8.932385, -0.26937625, 149326308714423, -0.44275, -0.919125, 2.3017502
766, 149326322796123, 4.046782, 8.932385, -0.26937625, 149326318714423, -0.44275, -0.919125, 2.3017502
767, 149326332796123, 4.3137403, 8.806455, -0.2716394, 149326328714423, -0.44275, -0.919125, 2.3017502
768, 149326342796123, 4.8929815, 8.495102, -0.35810393, 149326338714423, -0.35662502, -1.4206251, 1.9610001
769, 149326352796123, 4.8929815, 8.495102, -0.35810393, 149326348714423, -0.307875, -1.9036251, 1.3873751
770, 149326362796123, 4.8929815, 8.495102, -0.35810393, 149326358714423, -0.307875, -1.9036251, 1.3873751
771, 149326372796123, 4.983073, 8.419798, -0.71583587, 149326368714423, -0.13325001, -2.889625, 0.24137501
772, 149326382796123, 4.983073, 8.419798, -0.71583587, 149326378714423, -0.035875, -3.3352501, -0.39737502
773, 149326392796123, 4.983073, 8.419798, -0.71583587, 149326388714423, -0.035875, -3.3352501, -0.39737502
774, 149326402796123, 4.501364, 8.616599, -1.3145462, 149326398714423, -0.035875, -3.3352501, -0.39737502
775, 149326412796123, 4.501364, 8.616599, -1.3145462, 149326408714423, 0.2185, -4.38525, -2.351
776, 149326422796123, 4.501364, 8.616599, -1.3145462, 149326418714423, 0.2185, -4.38525, -2.351
777, 149326432796123, 4.501364, 8.616599, -1.3145462, 149326428714423, 0.2185, -4.38525, -2.351
778, 149326442796123, 3.3306363, 9.020028, -1.9447856, 149326438714423, 0.20712501, -3.9220002, -4.1808753
779, 149326452796123, 2.7659662, 9.176495, -2.092169, 149326448714423, 0.097, -3.2813752, -4.708875
780, 149326462796123, 2.7659662, 9.176495, -2.092169, 149326458714423, 0.097, -3.2813752, -4.708875
781, 149326472796123, 1.6197298, 9.420419, -2.2064424, 149326468714423, -0.21775001, -1.700875, -5.349625
782, 149326482796123, 1.0858135, 9.499318, -2.1954987, 149326478714423, -0.401625, -0.8995001, -5.5243754
783, 149326492796123, 1.0858135, 9.499318, -2.1954987, 149326488714423, -0.401625, -0.8995001, -5.5243754
784, 149326502796123, -0.052207343, 9.5883875, -2.0726378, 149326498714423, -0.401625, -0.8995001, -5.5243754
785, 149326512796123, -0.55614465, 9.590775, -1.9858322, 149326508714423, -1.105, 1.6428751, -5.7416253
786, 149326522796123, -0.55614465, 9.590775, -1.9858322, 149326518714423, -1.105, 1.6428751, -5.7416253
787, 149326532796123, -1.6123203, 9.513765, -1.7677332, 149326528714423, -1.105, 1.6428751, -5.7416253
788, 149326542796123, -2.0967884, 9.437997, -1.6624194, 149326538714423, -1.6502501, 3.2240002, -5.6641254
789, 149326552796123, -2.0967884, 9.437997, -1.6624194, 149326548714423, -1.9138751, 3.8968751, -5.5670004
790, 149326562796123, -2.0967884, 9.437997, -1.6624194, 149326558714423, -1.9138751, 3.8968751, -5.5670004
791, 149326572796123, -3.3957405, 9.093192, -1.4208521, 149326568714423, -2.380625, 4.953, -5.2667503
792, 149326582796123, -3.3957405, 9.093192, -1.4208521, 149326578714423, -2.5863752, 5.35575, -5.04475
793, 149326592796123, -3.3957405, 9.093192, -1.4208521, 149326588714423, -2.5863752, 5.35575, -5.04475
794, 149326602796123, -4.449901, 8.638021, -1.3486794, 149326598714423, -2.5863752, 5.35575, -5.04475
795, 149326612796123, -4.736142, 8.481895, -1.3647075, 149326608714423, -2.8997502, 5.7705, -4.156125
796, 149326622796123, -4.736142, 8.481895, -1.3647075, 149326618714423, -2.883125, 5.6388755, -3.7835002
797, 149326632796123, -4.736142, 8.481895, -1.3647075, 149326628714423, -2.883125, 5.6388755, -3.7835002
798, 149326642796123, -5.1703253, 8.212581, -1.4342139, 149326638714423, -2.666125, 5.0426254, -3.0192502
799, 149326652796123, -5.3320317, 8.100633, -1.4784228, 149326648714423, -2.48, 4.6165004, -2.6360002
800, 149326662796123, -5.3320317, 8.100633, -1.4784228, 149326658714423, -2.48, 4.6165004, -2.6360002
801, 149326672796123, -5.57549, 7.9171634, -1.5712117, 149326668714423, -1.9670001, 3.551, -1.8625001
802, 149326682796123, -5.6591644, 7.849176, -1.6125993, 149326678714423, -1.6635001, 2.960875, -1.4961251
803, 149326692796123, -5.6591644, 7.849176, -1.6125993, 149326688714423, -1.6635001, 2.960875, -1.4961251
804, 149326702796123, -5.7673616, 7.7565727, -1.6760913, 149326698714423, -1.6635001, 2.960875, -1.4961251
805, 149326712796123, -5.79641, 7.730624, -1.6956537, 149326708714423, -0.71962506, 1.234375, -0.566625
806, 149326722796123, -5.79641, 7.730624, -1.6956537, 149326718714423, -0.71962506, 1.234375, -0.566625
807, 149326732796123, -5.8152905, 7.71348, -1.7091085, 149326728714423, -0.71962506, 1.234375, -0.566625
808, 149326742796123, -5.8281255, 7.7016373, -1.7187191, 149326738714423, -0.072500005, 0.12100001, -0.051500004
809, 149326752796123, -5.8281255, 7.7016373, -1.7187191, 149326748714423, -0.072500005, 0.12100001, -0.051500004
810, 149326762796123, -5.8281255, 7.7016373, -1.7187191, 149326758714423, -0.072500005, 0.12100001, -0.051500004
811, 149326772796123, -5.8288693, 7.7009244, -1.7193081, 149326768714423, 0.0, 0.0, 0.0
812, 149326782796123, -5.8288693, 7.7009244, -1.7193081, 149326778714423, 0.0, 0.0, 0.0
813, 149326792796123, -5.8288693, 7.7009244, -1.7193081, 149326788714423, 0.0, 0.0, 0.0
814, 149326802796123, -5.8288693, 7.7009244, -1.7193081, 149326798714423, 0.0, 0.0, 0.0
815, 149326812796123, -5.8288693, 7.7009244, -1.7193081, 149326808714423, 0.0, 0.0, 0.0
816, 149326822796123, -5.8288693, 7.7009244, -1.7193081, 149326818714423, 0.0, 0.0, 0.0
817, 149326832796123, -5.8288693, 7.7009244, -1.7193081, 149326828714423, 0.0, 0.0, 0.0
818, 149326842796123, -5.8288693, 7.7009244, -1.7193081, 149326838714423, 0.0, 0.0, 0.0
819, 149326852796123, -5.8288693, 7.7009244, -1.7193081, 149326848714423, 0.0, 0.0, 0.0
820, 149326862796123, -5.8288693, 7.7009244, -1.7193081, 149326858714423, 0.0, 0.0, 0.0
821, 149326872796123, -5.8288693, 7.7009244, -1.7193081, 149326868714423, 0.0, 0.0, 0.0
822, 149326882796123, -5.8288693, 7.7009244, -1.7193081, 149326878714423, 0.0, 0.0, 0.0
823, 149326892796123, -5.8288693, 7.7009244, -1.7193081, 149326888714423, 0.0, 0.0, 0.0
824, 149326902796123, -5.8288693, 7.7009244, -1.7193081, 149326898714423, 0.0, 0.0, 0.0
825, 149326912796123, -5.8288693, 7.7009244, -1.7193081, 149326908714423, 0.0, 0.0, 0.0
826, 149326922796123, -5.8288693, 7.7009244, -1.7193081, 149326918714423, 0.0, 0.0, 0.0
827, 149326932796123, -5.8288693, 7.7009244, -1.7193081, 149326928714423, 0.0, 0.0, 0.0
828, 149326942796123, -5.8288693, 7.7009244, -1.7193081, 149326938714423, 0.0, 0.0, 0.0
829, 149326952796123, -5.8288693, 7.7009244, -1.7193081, 149326948714423, 0.0, 0.0, 0.0
830, 149326962796123, -5.8288693, 7.7009244, -1.7193081, 149326958714423, 0.0, 0.0, 0.0
831, 149326972796123, -5.8288693, 7.7009244, -1.7193081, 149326968714423, 0.0, 0.0, 0.0
832, 149326982796123, -5.8288693, 7.7009244, -1.7193081, 149326978714423, 0.0, 0.0, 0.0
833, 149326992796123, -5.8288693, 7.7009244, -1.7193081, 149326988714423, 0.0, 0.0, 0.0
834, 149327002796123, -5.8288693, 7.7009244, -1.7193081, 149326998714423, 0.0, 0.0, 0.0
835, 149327012796123, -5.8288693, 7.7009244, -1.7193081, 149327008714423, 0.0, 0.0, 0.0
836, 149327022796123, -5.8288693, 7.7009244, -1.7193081, 149327018714423, 0.0, 0.0, 0.0
837, 149327032796123, -5.8288693, 7.7009244, -1.7193081, 149327028714423, 0.0, 0.0, 0.0
838, 149327042796123, -5.8288693, 7.7009244, -1.7193081, 149327038714423, 0.0, 0.0, 0.0
839, 149327052796123, -5.8288693, 7.7009244, -1.7193081, 149327048714423, 0.0, 0.0, 0.0
840, 149327062796123, -5.8288693, 7.7009244, -1.7193081, 149327058714423, 0.0, 0.0, 0.0
841, 149327072796123, -5.8288693, 7.7009244, -1.7193081, 149327068714423, 0.0, 0.0, 0.0
842, 149327082796123, -5.8288693, 7.7009244, -1.7193081, 149327078714423, 0.0, 0.0, 0.0
843, 149327092796123, -5.8288693, 7.7009244, -1.7193081, 149327088714423, 0.0, 0.0, 0.0
844, 149327102796123, -5.8288693, 7.7009244, -1.7193081, 149327098714423, 0.0, 0.0, 0.0
845, 149327112796123, -5.8288693, 7.7009244, -1.7193081, 149327108714423, 0.0, 0.0, 0.0
846, 149327122796123, -5.8288693, 7.7009244, -1.7193081, 149327118714423, 0.0, 0.0, 0.0
847, 149327132796123, -5.8288693, 7.7009244, -1.7193081, 149327128714423, 0.0, 0.0, 0.0
848, 149327142796123, -5.8288693, 7.7009244, -1.7193081, 149327138714423, 0.0, 0.0, 0.0
849, 149327152796123, -5.8288693, 7.7009244, -1.7193081, 149327148714423, 0.0, 0.0, 0.0
850, 149327162796123, -5.8288693, 7.7009244, -1.7193081, 149327158714423, 0.0, 0.0, 0.0
851, 149327172796123, -5.8288693, 7.7009244, -1.7193081, 149327168714423, 0.0, 0.0, 0.0
852, 149327182796123, -5.8288693, 7.7009244, -1.7193081, 149327178714423, 0.0, 0.0, 0.0
853, 149327192796123, -5.8288693, 7.7009244, -1.7193081, 149327188714423, 0.0, 0.0, 0.0
854, 149327202796123, -5.8288693, 7.7009244, -1.7193081, 149327198714423, 0.0, 0.0, 0.0
855, 149327212796123, -5.8288693, 7.7009244, -1.7193081, 149327208714423, 0.0, 0.0, 0.0
856, 149327222796123, -5.8288693, 7.7009244, -1.7193081, 149327218714423, 0.0, 0.0, 0.0
857, 149327232796123, -5.8288693, 7.7009244, -1.7193081, 149327228714423, 0.0, 0.0, 0.0
858, 149327242796123, -5.8288693, 7.7009244, -1.7193081, 149327238714423, 0.0, 0.0, 0.0
859, 149327252796123, -5.8288693, 7.7009244, -1.7193081, 149327248714423, 0.0, 0.0, 0.0
860, 149327262796123, 0.0, 9.809989, 0.0, 149327258714423, 0.0, 0.0, 0.0
861, 149327272796123, 0.0, 9.809989, 0.0, 149327268714423, 0.0, 0.0, 0.0
862, 149327282796123, 0.0, 9.809989, 0.0, 149327278714423, 0.0, 0.0, 0.0
863, 149327292796123, 0.0, 9.809989, 0.0, 149327288714423, 0.0, 0.0, 0.0
864, 149327302796123, 0.0, 9.809989, 0.0, 149327298714423, 0.0, 0.0, 0.0
865, 149327312796123, 0.0, 9.809989, 0.0, 149327308714423, 0.0, 0.0, 0.0
866, 149327322796123, 0.0, 9.809989, 0.0, 149327318714423, 0.0, 0.0, 0.0
867, 149327332796123, 0.0, 9.809989, 0.0, 149327328714423, 0.0, 0.0, 0.0
868, 149327342796123, 0.0, 9.809989, 0.0, 149327338714423, 0.0, 0.0, 0.0
869, 149327352796123, 0.0, 9.809989, 0.0, 149327348714423, 0.0, 0.0, 0.0
870, 149327362796123, 0.0, 9.809989, 0.0, 149327358714423, 0.0, 0.0, 0.0
871, 149327372796123, 0.0, 9.809989, 0.0, 149327368714423, 0.0, 0.0, 0.0
872, 149327382796123, 0.0, 9.809989, 0.0, 149327378714423, 0.0, 0.0, 0.0
873, 149327392796123, 0.0, 9.809989, 0.0, 149327388714423, 0.0, 0.0, 0.0
874, 149327402796123, 0.0, 9.809989, 0.0, 149327398714423, 0.0, 0.0, 0.0
875, 149327412796123, 0.0, 9.809989, 0.0, 149327408714423, 0.0, 0.0, 0.0
876, 149327422796123, 0.0, 9.809989, 0.0, 149327418714423, 0.0, 0.0, 0.0
877, 149327432796123, 0.0, 9.809989, 0.0, 149327428714423, 0.0, 0.0, 0.0
878, 149327442796123, 0.0, 9.809989, 0.0, 149327438714423, 0.0, 0.0, 0.0
879, 149327452796123, 0.0, 9.809989, 0.0, 149327448714423, 0.0, 0.0, 0.0
880, 149327462796123, 0.0, 9.809989, 0.0, 149327458714423, 0.0, 0.0, 0.0
881, 149327472796123, 0.0, 9.809989, 0.0, 149327468714423, 0.0, 0.0, 0.0
882, 149327482796123, 0.0, 9.809989, 0.0, 149327478714423, 0.0, 0.0, 0.0
883, 149327492796123, 0.0, 9.809989, 0.0, 149327488714423, 0.0, 0.0, 0.0
884, 149327502796123, 0.0, 9.809989, 0.0, 149327498714423, 0.0, 0.0, 0.0
885, 149327512796123, 0.0, 9.809989, 0.0, 149327508714423, 0.0, 0.0, 0.0
886, 149327522796123, 0.0, 9.809989, 0.0, 149327518714423, 0.0, 0.0, 0.0
887, 149327532796123, 0.0, 9.809989, 0.0, 149327528714423, 0.0, 0.0, 0.0
888, 149327542796123, 0.0, 9.809989, 0.0, 149327538714423, 0.0, 0.0, 0.0
889, 149327552796123, 0.0, 9.809989, 0.0, 149327548714423, 0.0, 0.0, 0.0
890, 149327562796123, 0.0, 9.809989, 0.0, 149327558714423, 0.0, 0.0, 0.0
891, 149327572796123, 0.0, 9.809989, 0.0, 149327568714423, 0.0, 0.0, 0.0
892, 149327582796123, 0.0, 9.809989, 0.0, 149327578714423, 0.0, 0.0, 0.0
893, 149327592796123, 0.0, 9.809989, 0.0, 149327588714423, 0.0, 0.0, 0.0
894, 149327602796123, 0.0, 9.809989, 0.0, 149327598714423, 0.0, 0.0, 0.0
895, 149327612796123, 0.0, 9.809989, 0.0, 149327608714423, 0.0, 0.0, 0.0
896, 149327622796123, 0.0, 9.809989, 0.0, 149327618714423, 0.0, 0.0, 0.0
897, 149327632796123, 0.0, 9.809989, 0.0, 149327628714423, 0.0, 0.0, 0.0
898, 149327642796123, 0.0, 9.809989, 0.0, 149327638714423, 0.0, 0.0, 0.0
899, 149327652796123, 0.0, 9.809989, 0.0, 149327648714423, 0.0, 0.0, 0.0
900, 149327662796123, 0.0, 9.809989, 0.0, 149327658714423, 0.0, 0.0, 0.0
901, 149327672796123, 0.0, 9.809989, 0.0, 149327668714423, 0.0, 0.0, 0.0
902, 149327682796123, 0.0, 9.809989, 0.0, 149327678714423, 0.0, 0.0, 0.0
903, 149327692796123, 0.0, 9.809989, 0.0, 149327688714423, 0.0, 0.0, 0.0
904, 149327702796123, 0.0, 9.809989, 0.0, 149327698714423, 0.0, 0.0, 0.0
905, 149327712796123, 0.0, 9.809989, 0.0, 149327708714423, 0.0, 0.0, 0.0
906, 149327722796123, 0.0, 9.809989, 0.0, 149327718714423, 0.0, 0.0, 0.0
907, 149327732796123, 0.0, 9.809989, 0.0, 149327728714423, 0.0, 0.0, 0.0
908, 149327742796123, 0.0, 9.809989, 0.0, 149327738714423, 0.0, 0.0, 0.0
909, 149327752796123, 0.0, 9.809989, 0.0, 149327748714423, 0.0, 0.0, 0.0
910, 149327762796123, 0.0, 9.809989, 0.0, 149327758714423, 0.0, 0.0, 0.0
911, 149327772796123, 0.0, 9.809989, 0.0, 149327768714423, 0.0, 0.0, 0.0
912, 149327782796123, 0.0, 9.809989, 0.0, 149327778714423, 0.0, 0.0, 0.0
913, 149327792796123, 0.0, 9.809989, 0.0, 149327788714423, 0.0, 0.0, 0.0
914, 149327802796123, 0.0, 9.809989, 0.0, 149327798714423, 0.0, 0.0, 0.0
915, 149327812796123, 0.0, 9.809989, 0.0, 149327808714423, 0.0, 0.0, 0.0
916, 149327822796123, 0.0, 9.809989, 0.0, 149327818714423, 0.0, 0.0, 0.0
917, 149327832796123, 0.0, 9.809989, 0.0, 149327828714423, 0.0, 0.0, 0.0
918, 149327842796123, 0.0, 9.809989, 0.0, 149327838714423, 0.0, 0.0, 0.0
919, 149327852796123, 0.0, 9.809989, 0.0, 149327848714423, 0.0, 0.0, 0.0
920, 149327862796123, 0.0, 9.809989, 0.0, 149327858714423, 0.0, 0.0, 0.0
921, 149327872796123, 0.0, 9.809989, 0.0, 149327868714423, 0.0, 0.0, 0.0
922, 149327882796123, 0.0, 9.809989, 0.0, 149327878714423, 0.0, 0.0, 0.0
923, 149327892796123, 0.0, 9.809989, 0.0, 149327888714423, 0.0, 0.0, 0.0
924, 149327902796123, 0.0, 9.809989, 0.0, 149327898714423, 0.0, 0.0, 0.0
925, 149327912796123, 0.0, 9.809989, 0.0, 149327908714423, 0.0, 0.0, 0.0
926, 149327922796123, 0.0, 9.809989, 0.0, 149327918714423, 0.0, 0.0, 0.0
927, 149327932796123, 0.0, 9.809989, 0.0, 149327928714423, 0.0, 0.0, 0.0
928, 149327942796123, 0.0, 9.809989, 0.0, 149327938714423, 0.0, 0.0, 0.0
929, 149327952796123, 0.0, 9.809989, 0.0, 149327948714423, 0.0, 0.0, 0.0
930, 149327962796123, 0.0, 9.809989, 0.0, 149327958714423, 0.0, 0.0, 0.0
931, 149327972796123, 0.0, 9.809989, 0.0, 149327968714423, 0.0, 0.0, 0.0
932, 149327982796123, 0.0, 9.809989, 0.0, 149327978714423, 0.0, 0.0, 0.0
933, 149327992796123, 0.0, 9.809989, 0.0, 149327988714423, 0.0, 0.0, 0.0
934, 149328002796123, 0.0, 9.809989, 0.0, 149327998714423, 0.0, 0.0, 0.0
935, 149328012796123, 0.0, 9.809989, 0.0, 149328008714423, 0.0, 0.0, 0.0
936, 149328022796123, 0.0, 9.809989, 0.0, 149328018714423, 0.0, 0.0, 0.0
937, 149328032796123, 0.0, 9.809989, 0.0, 149328028714423, 0.0, 0.0, 0.0
938, 149328042796123, 0.0, 9.809989, 0.0, 149328038714423, 0.0, 0.0, 0.0
939, 149328052796123, 0.0, 9.809989, 0.0, 149328048714423, 0.0, 0.0, 0.0
940, 149328062796123, 0.0, 9.809989, 0.0, 149328058714423, 0.0, 0.0, 0.0
941, 149328072796123, 0.0, 9.809989, 0.0, 149328068714423, 0.0, 0.0, 0.0
942, 149328082796123, 0.0, 9.809989, 0.0, 149328078714423, 0.0, 0.0, 0.0
943, 149328092796123, 0.0, 9.809989, 0.0, 149328088714423, 0.0, 0.0, 0.0
944, 149328102796123, 0.0, 9.809989, 0.0, 149328098714423, 0.0, 0.0, 0.0
945, 149328112796123, 0.0, 9.809989, 0.0, 149328108714423, 0.0, 0.0, 0.0
946, 149328122796123, 0.0, 9.809989, 0.0, 149328118714423, 0.0, 0.0, 0.0
947, 149328132796123, 0.0, 9.809989, 0.0, 149328128714423, 0.0, 0.0, 0.0
948, 149328142796123, 0.0, 9.809989, 0.0, 149328138714423, 0.0, 0.0, 0.0
949, 149328152796123, 0.0, 9.809989, 0.0, 149328148714423, 0.0, 0.0, 0.0
950, 149328162796123, 0.0, 9.809989, 0.0, 149328158714423, 0.0, 0.0, 0.0
951, 149328172796123, 0.0, 9.809989, 0.0, 149328168714423, 0.0, 0.0, 0.0
952, 149328182796123, 0.0, 9.809989, 0.0, 149328178714423, 0.0, 0.0, 0.0
953, 149328192796123, 0.0, 9.809989, 0.0, 149328188714423, 0.0, 0.0, 0.0
954, 149328202796123, 0.0, 9.809989, 0.0, 149328198714423, 0.0, 0.0, 0.0
955, 149328212796123, 0.0, 9.809989, 0.0, 149328208714423, 0.0, 0.0, 0.0
956, 149328222796123, 0.0, 9.809989, 0.0, 149328218714423, 0.0, 0.0, 0.0
957, 149328232796123, 0.0, 9.809989, 0.0, 149328228714423, 0.0, 0.0, 0.0
958, 149328242796123, 0.0, 9.809989, 0.0, 149328238714423, 0.0, 0.0, 0.0
959, 149328252796123, 0.0, 9.809989, 0.0, 149328248714423, 0.0, 0.0, 0.0
960, 149328262796123, 0.0, 9.809989, 0.0, 149328258714423, 0.0, 0.0, 0.0
961, 149328272796123, 0.0, 9.809989, 0.0, 149328268714423, 0.0, 0.0, 0.0
962, 149328282796123, 0.0, 9.809989, 0.0, 149328278714423, 0.0, 0.0, 0.0
963, 149328292796123, 0.0, 9.809989, 0.0, 149328288714423, 0.0, 0.0, 0.0
964, 149328302796123, 0.0, 9.809989, 0.0, 149328298714423, 0.0, 0.0, 0.0
965, 149328312796123, 0.0, 9.809989, 0.0, 149328308714423, 0.0, 0.0, 0.0
966, 149328322796123, 0.0, 9.809989, 0.0, 149328318714423, 0.0, 0.0, 0.0
967, 149328332796123, 0.0, 9.809989, 0.0, 149328328714423, 0.0, 0.0, 0.0
